time (s)	coil I (A)	last det (V)	int current (uC)
9756.831186	1.089437	0.342404	463.010834
9756.832191	1.568262	0.342404	2039.113892
9756.833257	1.548981	0.342404	3690.327148
9756.834153	1.507877	0.342404	5041.385254
9756.835047	1.466741	0.342404	6352.651367
9756.836135	1.422264	0.342404	7900.075195
9756.837096	0.629714	0.342404	8505.230469
9756.837958	0.102532	0.342404	8593.613281
9756.838999	0.097987	0.342404	8695.618164
9756.840021	0.097987	0.342404	8795.760742
9756.840901	0.098152	0.342404	8882.134766
9756.841835	0.098104	0.342404	8973.763672
9756.842897	0.098210	0.342404	9078.063477
9756.843831	0.098097	0.342404	9169.685547
9756.844689	0.098097	0.342404	9253.852539
9756.845718	0.098079	0.342404	9354.775391
9756.846731	0.098075	0.342404	9454.125000
9757.773299	1.121851	0.471335	531.757202
9757.774178	1.568280	0.471335	1910.275269
9757.775045	1.559377	0.471335	3262.255371
9757.776096	1.513938	0.471335	4853.404297
9757.777043	1.471110	0.471335	6246.544922
9757.777920	1.433961	0.471335	7504.128906
9757.778868	1.007791	0.471335	8459.514648
9757.779934	0.114364	0.471335	8581.426758
9757.780811	0.098057	0.471335	8667.422852
9757.781680	0.098112	0.471335	8752.681641
9757.782699	0.098163	0.471335	8852.709961
9757.783656	0.098090	0.471335	8946.582031
9757.784529	0.098108	0.471335	9032.230469
9757.785451	0.098123	0.471335	9122.699219
9757.786518	0.098108	0.471335	9227.379883
9757.787405	0.098123	0.471335	9314.415039
9757.788269	0.098148	0.471335	9399.214844
9758.885447	1.195063	0.330911	662.065186
9758.886488	1.574388	0.330911	2301.003418
9758.887373	1.549438	0.330911	3672.256348
9758.888331	1.506533	0.330911	5115.515137
9758.889398	1.459211	0.330911	6672.493652
9758.890335	1.419906	0.330911	8002.945312
9758.891199	0.652064	0.330911	8566.329102
9758.892240	0.100137	0.330911	8670.571289
9758.893257	0.098112	0.330911	8770.350586
9758.894153	0.098141	0.330911	8858.285156
9758.895119	0.098192	0.330911	8953.138672
9758.896170	0.098068	0.330911	9056.208008
9758.897082	0.098057	0.330911	9145.635742
9758.897952	0.098145	0.330911	9231.021484
9758.899026	0.098240	0.330911	9336.531250
9758.900014	0.098126	0.330911	9433.479492
9758.900898	0.098156	0.330911	9520.249023
9759.833561	1.089269	0.468136	489.081696
9759.834422	1.565735	0.468136	1837.179321
9759.835474	1.553950	0.468136	3471.935059
9759.836510	1.508445	0.468136	5034.683594
9759.837384	1.468261	0.468136	6317.943359
9759.838341	1.428340	0.468136	7684.864746
9759.839407	0.690989	0.468136	8421.458984
9759.840323	0.102250	0.468136	8515.120117
9759.841193	0.098049	0.468136	8600.422852
9759.842259	0.098196	0.468136	8705.099609
9759.843237	0.098016	0.468136	8800.959961
9759.844129	0.098086	0.468136	8888.452148
9759.845096	0.098199	0.468136	8983.411133
9759.846151	0.098060	0.468136	9086.865234
9759.847055	0.098123	0.468136	9175.568359
9759.847916	0.098079	0.468136	9260.013672
9759.849011	0.098174	0.468136	9367.513672
9760.941609	1.140937	0.317912	610.401550
9760.942661	1.573663	0.317912	2265.895508
9760.943581	1.548160	0.317912	3690.203125
9760.944450	1.507767	0.317912	5000.453125
9760.945540	1.460127	0.317912	6591.991699
9760.946547	1.417998	0.317912	8019.916016
9760.947451	0.560918	0.317912	8526.986328
9760.948444	0.100499	0.317912	8626.782227
9760.949495	0.098177	0.317912	8729.966797
9760.950391	0.097998	0.317912	8817.773437
9760.951270	0.098167	0.317912	8904.061523
9760.952353	0.098130	0.317912	9010.335937
9760.953305	0.098064	0.317912	9103.692383
9760.954165	0.098112	0.317912	9188.068359
9760.955189	0.098199	0.317912	9288.625000
9760.956226	0.098214	0.317912	9390.472656
9760.957104	0.098093	0.317912	9476.598633
9761.889737	1.088178	0.469780	477.709961
9761.890614	1.565720	0.469780	1850.846558
9761.891603	1.556664	0.469780	3390.387207
9761.892657	1.510247	0.469780	4982.187012
9761.893566	1.468568	0.469780	6317.115234
9761.894435	1.430405	0.469780	7560.137695
9761.895528	0.772581	0.469780	8404.568359
9761.896506	0.102854	0.469780	8505.159180
9761.897364	0.098049	0.469780	8589.285156
9761.898436	0.098119	0.469780	8694.468750
9761.899474	0.098049	0.469780	8796.244141
9761.900355	0.098082	0.469780	8882.654297
9761.901264	0.098141	0.469780	8971.864258
9761.902340	0.098247	0.469780	9077.578125
9761.903290	0.098134	0.469780	9170.804687
9761.904148	0.098090	0.469780	9254.965820
9761.905183	0.098167	0.469780	9356.568359
9762.995737	1.149869	0.320841	586.433411
9762.996653	1.572085	0.320841	2026.463379
9762.997517	1.556136	0.320841	3370.965332
9762.998599	1.509485	0.320841	5004.228027
9762.999614	1.463976	0.320841	6490.163574
9763.000486	1.426798	0.320841	7734.331543
9763.001475	0.742775	0.320841	8468.935547
9763.002528	0.101082	0.320841	8575.374023
9763.003422	0.098071	0.320841	8663.049805
9763.004297	0.098064	0.320841	8748.855469
9763.005387	0.098097	0.320841	8855.781250
9763.006355	0.098016	0.320841	8950.661133
9763.007239	0.098049	0.320841	9037.336914
9763.008239	0.098119	0.320841	9135.456055
9763.009293	0.098068	0.320841	9238.819336
9763.010184	0.098152	0.320841	9326.272461
9763.011066	0.098181	0.320841	9412.868164
9763.949131	1.192837	0.451942	677.531372
9763.950026	1.572462	0.451942	2084.884766
9763.950950	1.553298	0.451942	3520.132324
9763.951817	1.512828	0.451942	4831.754883
9763.952862	1.467766	0.451942	6365.570312
9763.953739	1.429893	0.451942	7619.585937
9763.954624	1.013928	0.451942	8516.912109
9763.955602	0.125255	0.451942	8639.412109
9763.956537	0.097950	0.451942	8730.996094
9763.957412	0.098031	0.451942	8816.773437
9763.958353	0.098174	0.451942	8909.155273
9763.959379	0.097965	0.451942	9009.666992
9763.960271	0.097987	0.451942	9097.071289
9763.961146	0.098174	0.451942	9182.973633
9763.962126	0.098115	0.451942	9279.126953
9763.963091	0.098101	0.451942	9373.793945
9763.963968	0.098024	0.451942	9459.760742
9765.050811	1.090847	0.324700	462.519196
9765.051934	1.572656	0.324700	2228.612061
9765.052893	1.548234	0.324700	3713.368164
9765.053764	1.509045	0.324700	5027.746582
9765.054793	1.462800	0.324700	6532.967773
9765.055825	1.420023	0.324700	7998.431641
9765.056727	0.616721	0.324700	8554.713867
9765.057649	0.102312	0.324700	8649.045898
9765.058708	0.098141	0.324700	8752.977539
9765.059645	0.098086	0.324700	8844.883789
9765.060509	0.098141	0.324700	8929.677734
9765.061548	0.098207	0.324700	9031.714844
9765.062563	0.098046	0.324700	9131.231445
9765.063446	0.098031	0.324700	9217.792969
9765.064388	0.098210	0.324700	9310.307617
9765.065443	0.098064	0.324700	9413.764648
9765.066381	0.098042	0.324700	9505.728516
9766.006219	1.081252	0.441710	471.426056
9766.007087	1.565134	0.441710	1829.962646
9766.008119	1.554463	0.441710	3434.168457
9766.009146	1.509100	0.441710	4984.014648
9766.010038	1.468989	0.441710	6294.353027
9766.010982	1.429552	0.441710	7643.850098
9766.012047	0.731796	0.441710	8423.212891
9766.012986	0.102535	0.441710	8519.493164
9766.013847	0.098082	0.441710	8603.942383
9766.014912	0.098181	0.441710	8708.504883
9766.015905	0.098075	0.441710	8805.893555
9766.016794	0.098046	0.441710	8893.055664
9766.017771	0.098134	0.441710	8988.932617
9766.018806	0.098188	0.441710	9090.557617
9766.019717	0.098049	0.441710	9179.880859
9766.020576	0.097998	0.441710	9264.061523
9766.021667	0.098232	0.441710	9371.233398
9767.102923	1.080154	0.343016	472.027222
9767.103798	1.565665	0.343016	1841.984253
9767.104659	1.560436	0.343016	3185.519531
9767.105701	1.516187	0.343016	4765.385742
9767.106601	1.475002	0.343016	6092.887695
9767.107483	1.437810	0.343016	7361.036133
9767.108454	1.080582	0.343016	8410.281250
9767.109417	0.131836	0.343016	8537.239258
9767.110342	0.098009	0.343016	8627.897461
9767.111210	0.098185	0.343016	8713.122070
9767.112243	0.098119	0.343016	8814.478516
9767.113137	0.098090	0.343016	8902.170898
9767.114007	0.098086	0.343016	8987.505859
9767.114881	0.098082	0.343016	9073.229492
9767.115906	0.098170	0.343016	9173.853516
9767.116781	0.098115	0.343016	9259.704102
9767.117652	0.098108	0.343016	9345.156250
9768.064561	1.178665	0.424751	622.334900
9768.065594	1.574004	0.424751	2248.281006
9768.066496	1.549563	0.424751	3645.986816
9768.067450	1.507236	0.424751	5083.890137
9768.068506	1.459929	0.424751	6625.575195
9768.069436	1.420781	0.424751	7946.901855
9768.070306	0.699437	0.424751	8555.412109
9768.071370	0.100715	0.424751	8662.573242
9768.072375	0.098086	0.424751	8761.149414
9768.073250	0.098101	0.424751	8846.987305
9768.074235	0.098196	0.424751	8943.709961
9768.075289	0.098258	0.424751	9047.274414
9768.076195	0.098185	0.424751	9136.229492
9768.077052	0.098115	0.424751	9220.314453
9768.078103	0.098075	0.424751	9323.391602
9768.079097	0.098035	0.424751	9420.837891
9768.079985	0.098086	0.424751	9507.938477
9769.155089	1.142871	0.362816	579.435608
9769.156011	1.571829	0.362816	2028.661621
9769.156874	1.555957	0.362816	3371.452637
9769.157955	1.508785	0.362816	5002.449707
9769.158961	1.463621	0.362816	6474.852051
9769.159855	1.426439	0.362816	7750.088867
9769.160834	0.754706	0.362816	8488.946289
9769.161868	0.101580	0.362816	8593.979492
9769.162768	0.097947	0.362816	8682.131836
9769.163623	0.098060	0.362816	8765.973633
9769.164703	0.098170	0.362816	8871.997070
9769.165701	0.098082	0.362816	8969.882812
9769.166576	0.097998	0.362816	9055.630859
9769.167582	0.098152	0.362816	9154.372070
9769.168629	0.098049	0.362816	9257.029297
9769.169506	0.098049	0.362816	9343.018555
9769.170372	0.098097	0.362816	9427.970703
9770.124837	1.120334	0.406523	596.017883
9770.125782	1.572737	0.406523	2082.254150
9770.126700	1.552504	0.406523	3507.452637
9770.127579	1.513206	0.406523	4837.560547
9770.128605	1.467711	0.406523	6343.432129
9770.129506	1.429116	0.406523	7631.065918
9770.130389	0.982819	0.406523	8498.894531
9770.131295	0.126471	0.406523	8613.477539
9770.132305	0.097877	0.406523	8712.333984
9770.133222	0.098009	0.406523	8802.208008
9770.134094	0.098090	0.406523	8887.742187
9770.135104	0.098057	0.406523	8986.779297
9770.136020	0.098035	0.406523	9076.579102
9770.136939	0.098108	0.406523	9166.740234
9770.137796	0.098185	0.406523	9250.884766
9770.138809	0.098002	0.406523	9350.160156
9770.139702	0.098035	0.406523	9437.705078
9771.207194	1.124985	0.369853	588.367310
9771.208247	1.572583	0.369853	2244.297363
9771.209171	1.548146	0.369853	3674.784180
9771.210034	1.508408	0.369853	4976.540527
9771.211106	1.461566	0.369853	6543.339355
9771.212110	1.419716	0.369853	7968.733887
9771.212987	0.649200	0.369853	8538.083008
9771.213963	0.102341	0.369853	8637.967773
9771.215020	0.098035	0.369853	8741.590820
9771.215920	0.098005	0.369853	8829.795898
9771.216786	0.098112	0.369853	8914.760742
9771.217875	0.098152	0.369853	9021.648437
9771.218866	0.098060	0.369853	9118.826172
9771.219764	0.098093	0.369853	9206.914062
9771.220760	0.098199	0.369853	9304.720703
9771.221807	0.098038	0.369853	9407.367187
9771.222699	0.098112	0.369853	9494.882812
9772.184071	1.100559	0.393032	552.480652
9772.185124	1.573374	0.393032	2209.243408
9772.186016	1.550380	0.393032	3592.182129
9772.186884	1.511309	0.393032	4903.998047
9772.187943	1.464335	0.393032	6454.728516
9772.188909	1.423817	0.393032	7830.135742
9772.189794	0.786508	0.393032	8526.195312
9772.190702	0.108508	0.393032	8624.720703
9772.191766	0.097954	0.393032	8728.944336
9772.192642	0.098046	0.393032	8814.832031
9772.193500	0.098049	0.393032	8898.958008
9772.194523	0.098141	0.393032	8999.356445
9772.195491	0.098068	0.393032	9094.286133
9772.196366	0.098060	0.393032	9180.088867
9772.197245	0.098068	0.393032	9266.290039
9772.198332	0.097976	0.393032	9372.790039
9772.199227	0.098108	0.393032	9460.596680
9773.257273	1.190266	0.381717	647.504700
9773.258324	1.573982	0.381717	2301.759766
9773.259219	1.548270	0.381717	3687.461670
9773.260147	1.506292	0.381717	5085.300293
9773.261222	1.458633	0.381717	6653.330566
9773.262172	1.419448	0.381717	8001.806641
9773.263044	0.648116	0.381717	8566.963867
9773.264086	0.100228	0.381717	8671.401367
9773.265106	0.098097	0.381717	8771.459961
9773.265998	0.098137	0.381717	8858.998047
9773.266943	0.098167	0.381717	8951.765625
9773.267986	0.098159	0.381717	9054.145508
9773.268910	0.097987	0.381717	9144.685547
9773.269769	0.098009	0.381717	9228.875000
9773.270813	0.098071	0.381717	9331.261719
9773.271825	0.098159	0.381717	9430.598633
9773.272701	0.097961	0.381717	9516.413086
9774.243290	1.095736	0.397499	498.559906
9774.244370	1.572019	0.397499	2196.340576
9774.245328	1.548527	0.397499	3679.829102
9774.246193	1.509327	0.397499	4985.397461
9774.247250	1.462723	0.397499	6531.496094
9774.248283	1.419305	0.397499	7997.638672
9774.249183	0.620442	0.397499	8556.036133
9774.250123	0.102056	0.397499	8651.968750
9774.251176	0.097991	0.397499	8755.153320
9774.252098	0.098112	0.397499	8845.612305
9774.252967	0.098167	0.397499	8930.918945
9774.253993	0.098181	0.397499	9031.652344
9774.255008	0.098086	0.397499	9131.209961
9774.255900	0.098071	0.397499	9218.689453
9774.256865	0.098159	0.397499	9313.413086
9774.257908	0.098177	0.397499	9415.812500
9774.258840	0.098104	0.397499	9507.246094
9775.310418	1.204358	0.372069	685.279602
9775.311468	1.573894	0.372069	2337.868408
9775.312349	1.547930	0.372069	3701.594482
9775.313264	1.506577	0.372069	5080.112305
9775.314332	1.459680	0.372069	6639.050781
9775.315276	1.419968	0.372069	7979.500977
9775.316140	0.683185	0.372069	8569.772461
9775.317160	0.101147	0.372069	8672.943359
9775.318201	0.098104	0.372069	8775.070312
9775.319070	0.098126	0.372069	8860.341797
9775.320013	0.098134	0.372069	8952.881836
9775.321077	0.098042	0.372069	9057.198242
9775.322015	0.098093	0.372069	9149.209961
9775.322884	0.098079	0.372069	9234.440430
9775.323930	0.098258	0.372069	9337.218750
9775.324948	0.097899	0.372069	9436.879883
9775.325836	0.098086	0.372069	9523.980469
9776.301535	1.111249	0.404299	512.285645
9776.302418	1.567830	0.404299	1896.679199
9776.303393	1.555474	0.404299	3413.265869
9776.304452	1.508580	0.404299	5010.852539
9776.305379	1.466635	0.404299	6370.422852
9776.306243	1.429017	0.404299	7605.093750
9776.307335	0.740468	0.404299	8413.684570
9776.308317	0.101276	0.404299	8513.137695
9776.309213	0.098046	0.404299	8600.986328
9776.310192	0.098251	0.404299	8697.173828
9776.311237	0.098159	0.404299	8799.750000
9776.312144	0.098075	0.404299	8888.704102
9776.313005	0.098064	0.404299	8973.136719
9776.314096	0.098207	0.404299	9080.280273
9776.315062	0.098156	0.404299	9175.098633
9776.315921	0.098097	0.404299	9259.364258
9776.317006	0.098199	0.404299	9365.911133
9777.364521	1.160563	0.365313	606.974243
9777.365418	1.571466	0.365313	2016.579346
9777.366294	1.556235	0.365313	3379.841309
9777.367185	1.515846	0.365313	4730.459961
9777.368221	1.470037	0.365313	6253.417969
9777.369108	1.432526	0.365313	7524.068359
9777.369983	1.096069	0.365313	8483.128906
9777.371005	0.135275	0.365313	8621.379883
9777.371907	0.097833	0.365313	8709.625000
9777.372824	0.098064	0.365313	8799.549805
9777.373701	0.098236	0.365313	8885.703125
9777.374730	0.098049	0.365313	8986.595703
9777.375617	0.097969	0.365313	9073.494141
9777.376492	0.097994	0.365313	9159.239258
9777.377440	0.098082	0.365313	9252.221680
9777.378405	0.098093	0.365313	9346.881836
9777.379322	0.097958	0.365313	9436.708984
9778.359837	1.136938	0.406205	595.755737
9778.360894	1.572986	0.406205	2258.401855
9778.361812	1.547915	0.406205	3679.387939
9778.362682	1.507460	0.406205	4990.877930
9778.363775	1.460189	0.406205	6586.864746
9778.364777	1.417932	0.406205	8007.632812
9778.365665	0.599989	0.406205	8540.422852
9778.366676	0.101144	0.406205	8642.679687
9778.367721	0.098104	0.406205	8745.198242
9778.368609	0.098071	0.406205	8832.285156
9778.369469	0.097994	0.406205	8916.560547
9778.370594	0.098214	0.406205	9027.051758
9778.371552	0.098060	0.406205	9120.993164
9778.372410	0.098053	0.406205	9205.123047
9778.373429	0.098101	0.406205	9305.087891
9778.374467	0.097980	0.406205	9406.791016
9778.375353	0.098035	0.406205	9493.649414
9779.418565	1.070596	0.362308	461.426727
9779.419457	1.563929	0.362308	1856.451782
9779.420548	1.551614	0.362308	3549.262451
9779.421504	1.508683	0.362308	4991.563477
9779.422373	1.469377	0.362308	6268.452148
9779.423402	1.426124	0.362308	7735.934082
9779.424436	0.672953	0.362308	8431.767578
9779.425327	0.102524	0.362308	8523.117187
9779.426271	0.098046	0.362308	8615.671875
9779.427326	0.098082	0.362308	8719.148437
9779.428249	0.098130	0.362308	8809.722656
9779.429116	0.098075	0.362308	8894.753906
9779.430179	0.098159	0.362308	8999.096680
9779.431188	0.098027	0.362308	9098.005859
9779.432080	0.098075	0.362308	9185.488281
9779.433041	0.098075	0.362308	9279.738281
9779.434082	0.097972	0.362308	9381.727539
9780.414019	1.186263	0.411716	665.493774
9780.414940	1.572949	0.411716	2114.180176
9780.415858	1.551687	0.411716	3538.628906
9780.416740	1.511470	0.411716	4871.745117
9780.417778	1.466147	0.411716	6393.606445
9780.418671	1.428267	0.411716	7669.048340
9780.419559	0.961187	0.411716	8522.582031
9780.420532	0.121154	0.411716	8640.464844
9780.421482	0.097958	0.411716	8733.524414
9780.422401	0.098009	0.411716	8823.594727
9780.423265	0.098090	0.411716	8908.343750
9780.424311	0.098093	0.411716	9010.949219
9780.425198	0.097991	0.411716	9097.867187
9780.426063	0.098236	0.411716	9182.841797
9780.426992	0.098141	0.411716	9274.014648
9780.427984	0.098064	0.411716	9371.293945
9780.428892	0.097961	0.411716	9460.243164
9781.472778	1.116138	0.356765	562.533447
9781.473829	1.572462	0.356765	2215.190918
9781.474766	1.548193	0.356765	3665.848145
9781.475634	1.508438	0.356765	4975.171875
9781.476703	1.461269	0.356765	6537.269043
9781.477712	1.419174	0.356765	7969.215332
9781.478615	0.614498	0.356765	8524.107422
9781.479596	0.101613	0.356765	8623.789062
9781.480662	0.098148	0.356765	8728.415039
9781.481574	0.098090	0.356765	8817.873047
9781.482436	0.098130	0.356765	8902.460937
9781.483520	0.098196	0.356765	9008.905273
9781.484508	0.098104	0.356765	9105.832031
9781.485382	0.098229	0.356765	9191.683594
9781.486376	0.098119	0.356765	9289.213867
9781.487436	0.098082	0.356765	9393.180664
9781.488314	0.098148	0.356765	9479.354492
9782.469050	1.085651	0.409637	459.230194
9782.470156	1.571525	0.409637	2197.336426
9782.471125	1.547897	0.409637	3697.248535
9782.471988	1.508954	0.409637	4999.475586
9782.473041	1.461830	0.409637	6538.782227
9782.474085	1.418697	0.409637	8019.902344
9782.474973	0.613293	0.409637	8564.506836
9782.475892	0.102100	0.409637	8658.335937
9782.476965	0.098097	0.409637	8763.593750
9782.477904	0.098112	0.409637	8855.720703
9782.478763	0.098097	0.409637	8939.986328
9782.479783	0.098170	0.409637	9040.120117
9782.480803	0.097914	0.409637	9139.992187
9782.481690	0.098016	0.409637	9226.932617
9782.482627	0.098130	0.409637	9318.879883
9782.483689	0.098075	0.409637	9423.035156
9782.484632	0.098141	0.409637	9515.582031
9783.527883	1.077158	0.352056	471.795288
9783.528758	1.565585	0.352056	1841.681885
9783.529624	1.560011	0.352056	3192.651367
9783.530668	1.515249	0.352056	4774.571289
9783.531565	1.474406	0.352056	6097.113281
9783.532444	1.437188	0.352056	7360.401367
9783.533376	1.110718	0.352056	8395.589844
9783.534362	0.134436	0.352056	8528.143555
9783.535285	0.097972	0.352056	8618.572266
9783.536162	0.098057	0.352056	8704.568359
9783.537174	0.098130	0.352056	8803.875977
9783.538070	0.098057	0.352056	8891.734375
9783.538993	0.098057	0.352056	8982.240234
9783.539853	0.098203	0.352056	9066.695312
9783.540900	0.097961	0.352056	9169.260742
9783.541772	0.098020	0.352056	9254.734375
9783.542646	0.098046	0.352056	9340.426758
9784.522167	1.072163	0.410036	449.236298
9784.523235	1.570375	0.410036	2126.396484
9784.524205	1.549028	0.410036	3628.953857
9784.525093	1.509686	0.410036	4969.555176
9784.526096	1.464683	0.410036	6438.631836
9784.527147	1.421155	0.410036	7932.265625
9784.528048	0.674608	0.410036	8540.087891
9784.528938	0.103652	0.410036	8632.338867
9784.530035	0.098082	0.410036	8739.935547
9784.530974	0.097976	0.410036	8831.935547
9784.531842	0.098119	0.410036	8917.102539
9784.532866	0.098236	0.410036	9017.696289
9784.533890	0.098090	0.410036	9118.139648
9784.534782	0.098101	0.410036	9205.645508
9784.535718	0.098057	0.410036	9297.426758
9784.536765	0.098123	0.410036	9400.161133
9784.537708	0.098156	0.410036	9492.721680
9785.580998	1.076092	0.349413	468.100220
9785.581865	1.564717	0.349413	1824.709595
9785.582939	1.552896	0.349413	3492.519531
9785.583955	1.507679	0.349413	5024.321777
9785.584851	1.467316	0.349413	6339.036621
9785.585825	1.426956	0.349413	7728.891602
9785.586869	0.679874	0.349413	8438.680664
9785.587776	0.102133	0.349413	8531.314453
9785.588635	0.097936	0.349413	8615.441406
9785.589707	0.098236	0.349413	8720.750000
9785.590700	0.097983	0.349413	8818.047852
9785.591578	0.098005	0.349413	8904.096680
9785.592578	0.098082	0.349413	9002.178711
9785.593632	0.098101	0.349413	9105.577148
9785.594526	0.097991	0.349413	9193.180664
9785.595385	0.098075	0.349413	9277.426758
9785.596467	0.098104	0.349413	9383.575195
9786.578363	1.067278	0.400952	451.458496
9786.579416	1.570210	0.400952	2104.889648
9786.580438	1.547769	0.400952	3686.708984
9786.581327	1.507727	0.400952	5027.078125
9786.582288	1.465422	0.400952	6435.349121
9786.583349	1.420671	0.400952	7942.681641
9786.584280	0.621292	0.400952	8521.104492
9786.585138	0.102290	0.400952	8608.869141
9786.586205	0.098137	0.400952	8713.582031
9786.587215	0.098104	0.400952	8812.666992
9786.588096	0.098046	0.400952	8899.044922
9786.589068	0.098174	0.400952	8994.469727
9786.590123	0.098016	0.400952	9097.876953
9786.591014	0.097983	0.400952	9185.179687
9786.591884	0.098064	0.400952	9270.495117
9786.592949	0.098156	0.400952	9375.030273
9786.593946	0.098134	0.400952	9472.869141
9787.635136	1.082644	0.348410	463.371613
9787.636215	1.570822	0.348410	2158.288086
9787.637223	1.547146	0.348410	3717.811035
9787.638106	1.507222	0.348410	5048.687500
9787.639123	1.462797	0.348410	6536.351562
9787.640175	1.418969	0.348410	8029.106445
9787.641060	0.604918	0.348410	8564.458984
9787.641941	0.102030	0.348410	8654.347656
9787.643039	0.098130	0.348410	8762.094727
9787.644002	0.098049	0.348410	8856.516602
9787.644868	0.098163	0.348410	8941.525391
9787.645899	0.098196	0.348410	9042.765625
9787.646929	0.098126	0.348410	9143.835937
9787.647822	0.098082	0.348410	9231.423828
9787.648758	0.098130	0.348410	9323.273437
9787.649829	0.098093	0.348410	9428.331055
9787.650761	0.098163	0.348410	9519.818359
9788.631485	1.066520	0.405343	452.204376
9788.632429	1.563388	0.405343	1928.042114
9788.633483	1.550936	0.405343	3562.729004
9788.634388	1.510444	0.405343	4929.681152
9788.635256	1.470937	0.405343	6206.455078
9788.636299	1.427373	0.405343	7695.205078
9788.637257	0.830120	0.405343	8490.459961
9788.638137	0.109113	0.405343	8586.478516
9788.639059	0.098016	0.405343	8676.849609
9788.640104	0.098115	0.405343	8779.379883
9788.640983	0.098042	0.405343	8865.558594
9788.641844	0.097987	0.405343	8949.925781
9788.642869	0.098068	0.405343	9050.445312
9788.643832	0.098075	0.405343	9144.891602
9788.644693	0.097983	0.405343	9229.254883
9788.645559	0.098119	0.405343	9314.225586
9788.646681	0.098167	0.405343	9424.368164
9789.690321	1.103943	0.331354	483.526978
9789.691209	1.566936	0.331354	1874.966187
9789.692204	1.554840	0.331354	3422.032227
9789.693275	1.508361	0.331354	5037.486328
9789.694173	1.466792	0.331354	6354.665527
9789.695057	1.428472	0.331354	7617.434570
9789.696152	0.718176	0.331354	8403.837891
9789.697106	0.101832	0.331354	8500.986328
9789.697966	0.097950	0.331354	8585.223633
9789.698998	0.098137	0.331354	8686.500977
9789.700033	0.098071	0.331354	8788.004883
9789.700914	0.098013	0.331354	8874.354492
9789.701815	0.098115	0.331354	8962.755859
9789.702889	0.098108	0.331354	9068.124023
9789.703828	0.098038	0.331354	9160.181641
9789.704685	0.098057	0.331354	9244.215820
9789.705706	0.098024	0.331354	9344.297852
9790.684603	1.063279	0.406128	447.640381
9790.685659	1.570074	0.406128	2105.639160
9790.686671	1.548160	0.406128	3672.377441
9790.687563	1.507976	0.406128	5017.492187
9790.688511	1.465803	0.406128	6407.073730
9790.689568	1.421539	0.406128	7909.640625
9790.690503	0.651207	0.406128	8518.519531
9790.691364	0.103055	0.406128	8607.250000
9790.692419	0.098196	0.406128	8710.846680
9790.693434	0.098097	0.406128	8810.415039
9790.694310	0.098123	0.406128	8896.370117
9790.695262	0.098273	0.406128	8989.925781
9790.696316	0.098071	0.406128	9093.292969
9790.697221	0.098156	0.406128	9182.124023
9790.698089	0.098167	0.406128	9267.333008
9790.699158	0.098185	0.406128	9372.292969
9790.700147	0.098079	0.406128	9469.292969
9791.744449	1.068036	0.336184	454.983307
9791.745366	1.563450	0.336184	1888.666626
9791.746449	1.551680	0.336184	3569.135742
9791.747335	1.511415	0.336184	4908.249023
9791.748196	1.472047	0.336184	6175.681641
9791.749214	1.428860	0.336184	7630.260742
9791.750199	0.856161	0.336184	8473.579102
9791.751073	0.110947	0.336184	8570.546875
9791.751947	0.097950	0.336184	8656.155273
9791.753050	0.098104	0.336184	8764.364258
9791.753954	0.098035	0.336184	8852.987305
9791.754823	0.098005	0.336184	8938.154297
9791.755877	0.098060	0.336184	9041.509766
9791.756847	0.097925	0.336184	9136.497070
9791.757734	0.098013	0.336184	9223.434570
9791.758591	0.098053	0.336184	9307.465820
9791.759697	0.098064	0.336184	9415.924805
9792.737717	1.059686	0.399425	445.068237
9792.738746	1.568980	0.399425	2059.548096
9792.739789	1.547600	0.399425	3673.695068
9792.740686	1.507299	0.399425	5025.742187
9792.741649	1.464840	0.399425	6436.383301
9792.742699	1.420192	0.399425	7927.584473
9792.743648	0.601044	0.399425	8497.974609
9792.744514	0.101737	0.399425	8586.079102
9792.745578	0.098005	0.399425	8690.356445
9792.746580	0.097936	0.399425	8788.488281
9792.747469	0.098046	0.399425	8875.650391
9792.748435	0.098115	0.399425	8970.429687
9792.749504	0.097972	0.399425	9075.162109
9792.750411	0.098013	0.399425	9164.059570
9792.751276	0.097928	0.399425	9248.767578
9792.752345	0.097998	0.399425	9353.527344
9792.753345	0.097976	0.399425	9451.503906
9793.797567	1.067655	0.345933	456.956329
9793.798573	1.568639	0.345933	2035.007080
9793.799613	1.549182	0.345933	3646.156494
9793.800511	1.508353	0.345933	5000.657715
9793.801429	1.467081	0.345933	6347.438477
9793.802490	1.422638	0.345933	7856.857422
9793.803443	0.676080	0.345933	8501.162109
9793.804304	0.103674	0.345933	8590.425781
9793.805362	0.098027	0.345933	8694.138672
9793.806361	0.097969	0.345933	8792.009766
9793.807247	0.098079	0.345933	8878.907227
9793.808208	0.098181	0.345933	8973.259766
9793.809250	0.098112	0.345933	9075.492187
9793.810175	0.098137	0.345933	9166.269531
9793.811032	0.098119	0.345933	9250.357422
9793.812064	0.098064	0.345933	9351.559570
9793.813083	0.098035	0.345933	9451.457031
9794.790844	1.064916	0.391912	449.394470
9794.791882	1.569415	0.391912	2078.447510
9794.792908	1.548076	0.391912	3666.773682
9794.793801	1.508009	0.391912	5013.425781
9794.794758	1.465609	0.391912	6416.013672
9794.795799	1.421613	0.391912	7895.912109
9794.796738	0.656407	0.391912	8512.278320
9794.797601	0.103242	0.391912	8601.375977
9794.798659	0.098167	0.391912	8705.236328
9794.799677	0.098042	0.391912	8805.042969
9794.800563	0.098020	0.391912	8891.888672
9794.801464	0.097991	0.391912	8980.178711
9794.802334	0.098035	0.391912	9065.468750
9794.803315	0.098104	0.391912	9161.708984
9794.804239	0.098104	0.391912	9252.357422
9794.805125	0.098053	0.391912	9339.232422
9794.806008	0.098123	0.391912	9425.875000
9795.851811	1.156095	0.346658	593.076660
9795.852836	1.573048	0.346658	2205.450928
9795.853720	1.550383	0.346658	3575.989746
9795.854689	1.507874	0.346658	5037.119141
9795.855733	1.460867	0.346658	6562.263672
9795.856662	1.422041	0.346658	7883.339844
9795.857530	0.749985	0.346658	8534.327148
9795.858604	0.101243	0.346658	8643.061523
9795.859618	0.098005	0.346658	8742.439453
9795.860486	0.097987	0.346658	8827.492187
9795.861461	0.098188	0.346658	8923.225586
9795.862510	0.098046	0.346658	9026.075195
9795.863423	0.098035	0.346658	9115.581055
9795.864284	0.097998	0.346658	9199.957031
9795.865377	0.098229	0.346658	9307.321289
9795.866361	0.097870	0.346658	9403.625000
9795.867252	0.098145	0.346658	9491.072266
9796.843958	1.057167	0.368814	442.952850
9796.844869	1.562911	0.368814	1866.765137
9796.845951	1.551215	0.368814	3545.179199
9796.846851	1.510781	0.368814	4904.882324
9796.847720	1.471381	0.368814	6183.512207
9796.848747	1.428080	0.368814	7650.150391
9796.849722	0.851803	0.368814	8480.658203
9796.850597	0.110581	0.368814	8577.416992
9796.851498	0.097976	0.368814	8665.693359
9796.852589	0.098031	0.368814	8772.645508
9796.853480	0.097961	0.368814	8859.928711
9796.854341	0.097936	0.368814	8944.250977
9796.855372	0.098174	0.368814	9045.467773
9796.856327	0.098009	0.368814	9139.066406
9796.857203	0.098057	0.368814	9224.963867
9796.858058	0.097954	0.368814	9308.714844
9796.859169	0.098104	0.368814	9417.708984
9797.905910	1.127827	0.340418	544.740540
9797.906791	1.568536	0.340418	1926.621094
9797.907725	1.555276	0.340418	3379.248779
9797.908799	1.507991	0.340418	4998.831055
9797.909731	1.466082	0.340418	6365.219238
9797.910606	1.429003	0.340418	7615.596680
9797.911676	0.750857	0.340418	8419.013672
9797.912689	0.101023	0.340418	8521.349609
9797.913577	0.097980	0.340418	8608.355469
9797.914531	0.098130	0.340418	8701.971680
9797.915592	0.098137	0.340418	8806.095703
9797.916513	0.098020	0.340418	8896.372070
9797.917378	0.098097	0.340418	8981.225586
9797.918453	0.098137	0.340418	9086.722656
9797.919443	0.098075	0.340418	9183.816406
9797.920326	0.098005	0.340418	9270.355469
9797.921310	0.098082	0.340418	9366.868164
9798.895120	1.146328	0.348402	581.188354
9798.896082	1.572462	0.348402	2093.896973
9798.896956	1.553855	0.348402	3451.966309
9798.897979	1.508701	0.348402	4995.367676
9798.899032	1.462200	0.348402	6535.063965
9798.899915	1.424344	0.348402	7792.760254
9798.900797	0.816350	0.348402	8512.781250
9798.901888	0.102246	0.348402	8624.332031
9798.902853	0.097892	0.348402	8718.797852
9798.903711	0.097983	0.348402	8802.867187
9798.904752	0.097994	0.348402	8904.878906
9798.905785	0.098020	0.348402	9006.133789
9798.906660	0.097958	0.348402	9091.846680
9798.907571	0.098079	0.348402	9181.196289
9798.908630	0.098071	0.348402	9285.053711
9798.909577	0.097943	0.348402	9377.805664
9798.910442	0.098042	0.348402	9462.612305
9799.964149	1.094399	0.313767	528.594849
9799.965215	1.572250	0.313767	2204.613037
9799.966168	1.547494	0.313767	3679.374756
9799.967036	1.508090	0.313767	4988.396484
9799.968095	1.460911	0.313767	6535.500977
9799.969111	1.418745	0.313767	7976.945801
9799.970008	0.614670	0.313767	8528.304687
9799.970977	0.102100	0.313767	8627.239258
9799.972036	0.098005	0.313767	8731.027344
9799.972950	0.098082	0.313767	8820.674805
9799.973810	0.098038	0.313767	8904.987305
9799.974888	0.098097	0.313767	9010.735352
9799.975886	0.097991	0.313767	9108.530273
9799.976761	0.098093	0.313767	9194.362305
9799.977730	0.098031	0.313767	9289.354492
9799.978791	0.098104	0.313767	9393.443359
9799.979688	0.098108	0.313767	9481.446289
9800.948266	1.164686	0.318480	606.801514
9800.949248	1.573231	0.318480	2151.714600
9800.950117	1.552566	0.318480	3500.894287
9800.951143	1.507057	0.318480	5047.134766
9800.952199	1.460596	0.318480	6589.523926
9800.953073	1.422883	0.318480	7833.124023
9800.953983	0.744540	0.318480	8510.655273
9800.955065	0.100591	0.318480	8619.494141
9800.956026	0.098057	0.318480	8713.726562
9800.956897	0.098090	0.318480	8799.163086
9800.957925	0.098005	0.318480	8899.913086
9800.958959	0.097976	0.318480	9001.220703
9800.959847	0.098137	0.318480	9088.366211
9800.960788	0.098134	0.318480	9180.709961
9800.961832	0.098068	0.318480	9283.092773
9800.962772	0.098126	0.318480	9375.331055
9800.963636	0.098005	0.318480	9460.007812
9802.018354	1.177467	0.311261	626.412415
9802.019296	1.572722	0.311261	2107.916748
9802.020159	1.553514	0.311261	3448.599609
9802.021232	1.506302	0.311261	5064.862305
9802.022256	1.460940	0.311261	6560.864746
9802.023131	1.423553	0.311261	7806.474121
9802.024093	0.724651	0.311261	8503.587891
9802.025145	0.100477	0.311261	8609.290039
9802.026059	0.098057	0.311261	8698.914062
9802.026923	0.098005	0.311261	8783.590820
9802.027989	0.098119	0.311261	8888.185547
9802.028981	0.098053	0.311261	8985.454102
9802.029869	0.098068	0.311261	9072.538086
9802.030836	0.098104	0.311261	9167.405273
9802.031886	0.098071	0.311261	9270.379883
9802.032805	0.097950	0.311261	9360.396484
9802.033663	0.098020	0.311261	9444.498047
9802.998294	1.154454	0.303724	582.999451
9802.999239	1.571858	0.303724	2068.405273
9803.000118	1.554221	0.303724	3434.565674
9803.001078	1.512052	0.303724	4886.135742
9803.002109	1.465576	0.303724	6397.144531
9803.002995	1.428131	0.303724	7662.468750
9803.003861	0.977937	0.303724	8509.362305
9803.004924	0.109889	0.303724	8626.173828
9803.005857	0.097899	0.303724	8717.513672
9803.006724	0.097983	0.303724	8802.464844
9803.007649	0.098108	0.303724	8893.214844
9803.008701	0.097917	0.303724	8996.223633
9803.009591	0.097983	0.303724	9083.428711
9803.010454	0.098046	0.303724	9168.041992
9803.011468	0.097969	0.303724	9267.381836
9803.012431	0.097917	0.303724	9361.676758
9803.013303	0.097925	0.303724	9447.067383
9804.075481	1.107041	0.303970	501.489563
9804.076354	1.566398	0.303970	1868.954834
9804.077350	1.554800	0.303970	3417.535400
9804.078425	1.507342	0.303970	5037.928711
9804.079335	1.465994	0.303970	6371.982910
9804.080204	1.427911	0.303970	7612.837891
9804.081302	0.720396	0.303970	8403.832031
9804.082258	0.101429	0.303970	8500.798828
9804.083131	0.097994	0.303970	8586.347656
9804.084135	0.098196	0.303970	8684.936523
9804.085178	0.098130	0.303970	8787.286133
9804.086055	0.098035	0.303970	8873.262695
9804.086921	0.098145	0.303970	8958.255859
9804.088015	0.098170	0.303970	9065.654297
9804.088972	0.098068	0.303970	9159.504883
9804.089829	0.097965	0.303970	9243.460937
9804.090886	0.098123	0.303970	9347.176758
9805.047374	1.190259	0.304449	682.018311
9805.048424	1.573235	0.304449	2333.915039
9805.049306	1.547223	0.304449	3698.565430
9805.050171	1.506119	0.304449	5001.358398
9805.051298	1.458618	0.304449	6645.221191
9805.052247	1.418613	0.304449	7991.485352
9805.053122	0.645040	0.304449	8555.895508
9805.054138	0.100613	0.304449	8658.118164
9805.055171	0.097943	0.304449	8759.292969
9805.056062	0.098068	0.304449	8846.670898
9805.056997	0.098159	0.304449	8938.450195
9805.058057	0.098031	0.304449	9042.363281
9805.058991	0.098046	0.304449	9133.937500
9805.059859	0.098082	0.304449	9219.073242
9805.060910	0.098207	0.304449	9322.289062
9805.061935	0.098057	0.304449	9422.796875
9805.062818	0.098049	0.304449	9509.374023
9806.130698	1.110890	0.295510	559.888489
9806.131738	1.572715	0.295510	2195.511963
9806.132623	1.550607	0.295510	3567.798828
9806.133486	1.511393	0.295510	4872.130859
9806.134521	1.465016	0.295510	6388.422363
9806.135479	1.425011	0.295510	7753.583008
9806.136360	0.867898	0.295510	8518.201172
9806.137270	0.113782	0.295510	8621.742187
9806.138334	0.097939	0.295510	8725.950195
9806.139228	0.098016	0.295510	8813.577148
9806.140095	0.098082	0.295510	8898.614258
9806.141168	0.098152	0.295510	9003.931641
9806.142128	0.098086	0.295510	9098.093750
9806.143002	0.098060	0.295510	9183.798828
9806.143882	0.098123	0.295510	9270.146484
9806.144981	0.098035	0.295510	9377.886719
9806.145858	0.098046	0.295510	9463.873047
9807.099318	1.060085	0.300985	445.235870
9807.100284	1.564215	0.300985	1956.267578
9807.101342	1.549783	0.300985	3595.937744
9807.102271	1.507888	0.300985	4996.765625
9807.103138	1.467788	0.300985	6269.337891
9807.104215	1.423729	0.300985	7802.694336
9807.105220	0.640774	0.300985	8446.671875
9807.106102	0.102506	0.300985	8537.082031
9807.107083	0.098053	0.300985	8633.272461
9807.108140	0.098145	0.300985	8737.011719
9807.109029	0.097983	0.300985	8824.119141
9807.109885	0.098057	0.300985	8908.055664
9807.110974	0.098104	0.300985	9014.891602
9807.111968	0.097885	0.300985	9112.188477
9807.112845	0.097961	0.300985	9198.100586
9807.113815	0.098060	0.300985	9293.218750
9807.114874	0.097976	0.300985	9396.975586
9808.186930	1.155469	0.277963	630.885986
9808.187987	1.572810	0.277963	2293.346191
9808.188910	1.545956	0.277963	3720.263428
9808.189779	1.505233	0.277963	5028.311035
9808.190888	1.457311	0.277963	6644.468750
9808.191868	1.417094	0.277963	8033.220215
9808.192747	0.586534	0.277963	8548.784180
9808.193811	0.099287	0.277963	8654.425781
9808.194838	0.098002	0.277963	8755.073242
9808.195728	0.098031	0.277963	8842.321289
9808.196649	0.098005	0.277963	8932.583984
9808.197702	0.098104	0.277963	9035.887695
9808.198640	0.098016	0.277963	9127.827148
9808.199504	0.098086	0.277963	9212.573242
9808.200535	0.098086	0.277963	9313.700195
9808.201556	0.098071	0.277963	9413.831055
9808.202445	0.098013	0.277963	9500.963867
9809.151493	1.134847	0.307587	554.940369
9809.152364	1.568661	0.307587	1921.243896
9809.153304	1.555129	0.307587	3383.065430
9809.154376	1.507709	0.307587	4999.329102
9809.155313	1.465756	0.307587	6372.742187
9809.156181	1.428648	0.307587	7612.808105
9809.157240	0.757928	0.307587	8415.454102
9809.158257	0.101147	0.307587	8518.321289
9809.159151	0.098097	0.307587	8606.019531
9809.160110	0.098159	0.307587	8700.154297
9809.161153	0.098097	0.307587	8802.469727
9809.162075	0.098005	0.307587	8892.831055
9809.162940	0.097980	0.307587	8977.583984
9809.164002	0.098123	0.307587	9081.790039
9809.164983	0.097965	0.307587	9177.893555
9809.165879	0.098038	0.307587	9265.736328
9809.166881	0.098079	0.307587	9364.010742
9810.241042	1.139253	0.272090	578.740479
9810.241950	1.570997	0.272090	2005.206055
9810.242813	1.555554	0.272090	3347.649414
9810.243917	1.508148	0.272090	5012.645020
9810.244920	1.462994	0.272090	6480.028320
9810.245795	1.425963	0.272090	7727.746094
9810.246785	0.739226	0.272090	8459.580078
9810.247846	0.100847	0.272090	8566.579102
9810.248738	0.097980	0.272090	8653.976562
9810.249604	0.098119	0.272090	8738.947266
9810.250702	0.098170	0.272090	8846.738281
9810.251676	0.098049	0.272090	8942.238281
9810.252543	0.098134	0.272090	9027.320312
9810.253571	0.098119	0.272090	9128.186523
9810.254618	0.098097	0.272090	9230.893555
9810.255511	0.098053	0.272090	9318.455078
9810.256434	0.098174	0.272090	9409.069336
9811.202526	1.082314	0.324502	474.053741
9811.203395	1.565072	0.324502	1834.101196
9811.204431	1.554331	0.324502	3444.388184
9811.205323	1.514352	0.324502	4795.189941
9811.206189	1.474493	0.324502	6072.101074
9811.207058	1.435455	0.324502	7319.511719
9811.208128	1.013547	0.324502	8404.007812
9811.209024	0.127057	0.324502	8517.850586
9811.209898	0.098024	0.324502	8603.523437
9811.210893	0.098152	0.324502	8701.184570
9811.211837	0.098101	0.324502	8793.791992
9811.212763	0.098046	0.324502	8884.582031
9811.213626	0.098148	0.324502	8969.284180
9811.214652	0.098049	0.324502	9069.882812
9811.215519	0.098071	0.324502	9154.910156
9811.216394	0.098068	0.324502	9240.719727
9811.217360	0.098203	0.324502	9335.583984
9812.294152	1.135800	0.260355	571.307190
9812.295072	1.571224	0.260355	2016.833496
9812.295937	1.555097	0.260355	3361.991943
9812.297039	1.507152	0.260355	5022.873535
9812.298044	1.462181	0.260355	6492.365723
9812.298950	1.424385	0.260355	7782.858398
9812.299953	0.684723	0.260355	8469.635742
9812.300992	0.100360	0.260355	8573.910156
9812.301884	0.098130	0.260355	8661.442383
9812.302743	0.098236	0.260355	8745.827148
9812.303826	0.098295	0.260355	8852.280273
9812.304785	0.098130	0.260355	8946.386719
9812.305643	0.098108	0.260355	9030.563477
9812.306746	0.098181	0.260355	9138.857422
9812.307779	0.098075	0.260355	9240.168945
9812.308654	0.098177	0.260355	9326.074219
9812.309570	0.098243	0.260355	9416.065430
9813.256733	1.157062	0.325332	585.473206
9813.257757	1.572949	0.325332	2196.173340
9813.258653	1.549922	0.325332	3584.903320
9813.259604	1.507533	0.325332	5018.567383
9813.260658	1.460449	0.325332	6557.880859
9813.261582	1.421873	0.325332	7871.691406
9813.262452	0.763129	0.325332	8535.613281
9813.263525	0.101067	0.325332	8644.057617
9813.264525	0.098126	0.325332	8742.183594
9813.265418	0.098042	0.325332	8829.735352
9813.266389	0.098101	0.325332	8924.991211
9813.267429	0.098119	0.325332	9027.035156
9813.268337	0.098123	0.325332	9116.130859
9813.269199	0.098090	0.325332	9200.684570
9813.270266	0.098170	0.325332	9305.431641
9813.271264	0.097991	0.325332	9403.226562
9813.272139	0.098167	0.325332	9489.122070
9814.348250	1.100731	0.242067	489.825409
9814.349126	1.566288	0.242067	1861.893677
9814.349997	1.559835	0.242067	3220.510254
9814.350965	1.517974	0.242067	4689.908691
9814.351896	1.474790	0.242067	6062.937988
9814.352823	1.435851	0.242067	7393.971680
9814.353702	1.183722	0.242067	8434.462891
9814.354683	0.143862	0.242067	8575.591797
9814.355623	0.097980	0.242067	8667.692383
9814.356512	0.098093	0.242067	8754.897461
9814.357515	0.098181	0.242067	8853.373047
9814.358415	0.098035	0.242067	8941.604492
9814.359335	0.098101	0.242067	9031.857422
9814.360198	0.098060	0.242067	9116.483398
9814.361155	0.098068	0.242067	9210.333984
9814.362081	0.098020	0.242067	9301.100586
9814.362996	0.098207	0.242067	9390.959961
9815.309846	1.152459	0.337711	581.991577
9815.310874	1.572792	0.337711	2198.821533
9815.311765	1.550145	0.337711	3580.000977
9815.312726	1.507500	0.337711	5028.708496
9815.313782	1.460145	0.337711	6570.622070
9815.314709	1.421473	0.337711	7888.328125
9815.315574	0.754856	0.337711	8541.278320
9815.316633	0.101777	0.337711	8649.060547
9815.317637	0.098046	0.337711	8747.498047
9815.318517	0.098086	0.337711	8833.813477
9815.319482	0.098236	0.337711	8928.611328
9815.320542	0.098064	0.337711	9032.559570
9815.321446	0.098046	0.337711	9121.192383
9815.322309	0.098167	0.337711	9205.910156
9815.323376	0.098159	0.337711	9310.646484
9815.324367	0.098057	0.337711	9407.820312
9815.325257	0.098156	0.337711	9495.178711
9816.401345	1.075624	0.232197	462.518219
9816.402219	1.565032	0.232197	1830.355835
9816.403206	1.556382	0.232197	3366.504639
9816.404217	1.511323	0.232197	4894.452148
9816.405109	1.471069	0.232197	6206.645996
9816.405976	1.433533	0.232197	7449.518555
9816.407060	0.889893	0.232197	8414.162109
9816.407968	0.112449	0.232197	8516.265625
9816.408841	0.098049	0.232197	8601.862305
9816.409823	0.098236	0.232197	8698.330078
9816.410849	0.098126	0.232197	8799.007812
9816.411723	0.098082	0.232197	8884.731445
9816.412588	0.098210	0.232197	8969.683594
9816.413626	0.098240	0.232197	9071.656250
9816.414564	0.098137	0.232197	9163.708984
9816.415444	0.098177	0.232197	9250.105469
9816.416404	0.098159	0.232197	9344.337891
9817.363011	1.186637	0.328974	652.650330
9817.364039	1.573220	0.328974	2269.920654
9817.364910	1.548988	0.328974	3619.089355
9817.365867	1.506343	0.328974	5060.659180
9817.366934	1.458805	0.328974	6617.204102
9817.367860	1.419961	0.328974	7932.087891
9817.368738	0.688059	0.328974	8536.204102
9817.369798	0.100312	0.328974	8642.535156
9817.370796	0.098152	0.328974	8740.490234
9817.371692	0.098265	0.328974	8828.536133
9817.372661	0.098181	0.328974	8923.673828
9817.373712	0.098079	0.328974	9026.754883
9817.374623	0.098156	0.328974	9116.174805
9817.375486	0.098148	0.328974	9200.876953
9817.376563	0.098181	0.328974	9306.618164
9817.377545	0.098225	0.328974	9403.075195
9817.378441	0.098068	0.328974	9490.943359
9818.454480	1.088507	0.229398	476.766083
9818.455345	1.564816	0.229398	1830.331665
9818.456427	1.552178	0.229398	3509.788086
9818.457426	1.507317	0.229398	5015.597656
9818.458307	1.467722	0.229398	6308.660645
9818.459307	1.426373	0.229398	7735.034180
9818.460367	0.665896	0.229398	8440.883789
9818.461249	0.101927	0.229398	8530.784180
9818.462119	0.098035	0.229398	8616.074219
9818.463228	0.098167	0.229398	8724.940430
9818.464188	0.098042	0.229398	8819.060547
9818.465053	0.098079	0.229398	8903.898437
9818.466089	0.098177	0.229398	9005.610352
9818.467130	0.098123	0.229398	9107.755859
9818.468024	0.098167	0.229398	9195.516602
9818.468930	0.098167	0.229398	9284.455078
9818.470006	0.098134	0.229398	9390.046875
9819.418041	1.062572	0.321401	446.280243
9819.418995	1.563820	0.321401	1938.164062
9819.420041	1.550566	0.321401	3560.056641
9819.420981	1.508588	0.321401	4978.128906
9819.421847	1.468444	0.321401	6249.800781
9819.422930	1.424084	0.321401	7792.083984
9819.423936	0.649281	0.321401	8445.260742
9819.424819	0.102561	0.321401	8535.822266
9819.425816	0.098071	0.321401	8633.599609
9819.426868	0.098115	0.321401	8736.816406
9819.427766	0.098068	0.321401	8824.880859
9819.428622	0.098229	0.321401	8908.964844
9819.429703	0.098295	0.321401	9015.221680
9819.430685	0.098049	0.321401	9111.505859
9819.431559	0.098119	0.321401	9197.261719
9819.432546	0.098134	0.321401	9294.119141
9819.433601	0.098104	0.321401	9397.619141
9820.505626	1.136056	0.234139	590.749023
9820.506689	1.572623	0.234139	2262.447510
9820.507596	1.547589	0.234139	3666.110840
9820.508469	1.507310	0.234139	4981.992187
9820.509543	1.460427	0.234139	6550.491211
9820.510530	1.419097	0.234139	7951.139648
9820.511428	0.641320	0.234139	8527.044922
9820.512409	0.101942	0.234139	8627.049805
9820.513447	0.097983	0.234139	8728.756836
9820.514350	0.098137	0.234139	8817.375000
9820.515213	0.098119	0.234139	8902.051758
9820.516315	0.098071	0.234139	9010.125977
9820.517278	0.098064	0.234139	9104.561523
9820.518145	0.098053	0.234139	9189.573242
9820.519153	0.098181	0.234139	9288.540039
9820.520206	0.098046	0.234139	9391.782227
9820.521081	0.098192	0.234139	9477.700195
9821.473340	1.176687	0.306077	650.707886
9821.474234	1.571382	0.306077	2055.523193
9821.475153	1.552504	0.306077	3482.273926
9821.476034	1.512034	0.306077	4814.375488
9821.477070	1.466785	0.306077	6333.964355
9821.477962	1.429204	0.306077	7608.814453
9821.478846	1.013657	0.306077	8504.887695
9821.479820	0.125859	0.306077	8627.474609
9821.480770	0.098020	0.306077	8720.593750
9821.481645	0.098093	0.306077	8806.425781
9821.482597	0.098148	0.306077	8899.863281
9821.483597	0.098123	0.306077	8997.985352
9821.484482	0.098038	0.306077	9084.749023
9821.485350	0.098064	0.306077	9169.868164
9821.486300	0.098148	0.306077	9263.109375
9821.487252	0.098031	0.306077	9356.434570
9821.488127	0.098104	0.306077	9442.275391
9822.557635	1.067721	0.236717	458.052307
9822.558575	1.563743	0.236717	1927.970459
9822.559647	1.549830	0.236717	3589.388672
9822.560594	1.507577	0.236717	5017.063965
9822.561457	1.468022	0.236717	6283.967285
9822.562498	1.424583	0.236717	7766.958008
9822.563529	0.651167	0.236717	8438.311523
9822.564406	0.102301	0.236717	8528.029297
9822.565359	0.098119	0.236717	8621.536133
9822.566410	0.098148	0.236717	8724.689453
9822.567334	0.098119	0.236717	8815.351562
9822.568201	0.098181	0.236717	8900.474609
9822.569258	0.098119	0.236717	9004.186523
9822.570266	0.098137	0.236717	9103.108398
9822.571153	0.098181	0.236717	9190.195312
9822.572120	0.098339	0.236717	9285.289062
9822.573171	0.098236	0.236717	9388.535156
9823.529488	1.143062	0.288038	577.246094
9823.530434	1.571796	0.288038	2064.164551
9823.531302	1.554496	0.288038	3413.466797
9823.532359	1.507592	0.288038	5006.991211
9823.533393	1.461643	0.288038	6518.330078
9823.534292	1.423857	0.288038	7798.377930
9823.535248	0.745979	0.288038	8511.534180
9823.536291	0.101210	0.288038	8617.095703
9823.537214	0.098086	0.288038	8707.628906
9823.538073	0.098097	0.288038	8791.894531
9823.539130	0.098328	0.288038	8895.827148
9823.540139	0.098046	0.288038	8994.754883
9823.541017	0.098079	0.288038	9080.868164
9823.542000	0.098229	0.288038	9177.426758
9823.543049	0.098221	0.288038	9280.460937
9823.543951	0.098115	0.288038	9368.960937
9823.544811	0.098177	0.288038	9453.393555
9824.607687	1.089565	0.246309	475.050507
9824.608608	1.568046	0.246309	1919.220581
9824.609477	1.557092	0.246309	3272.333740
9824.610481	1.514418	0.246309	4792.809082
9824.611416	1.472245	0.246309	6169.357910
9824.612285	1.434899	0.246309	7416.285156
9824.613328	0.985247	0.246309	8443.897461
9824.614207	0.125625	0.246309	8554.322266
9824.615072	0.097994	0.246309	8639.087891
9824.616016	0.098159	0.246309	8731.750000
9824.616973	0.098174	0.246309	8825.702148
9824.617873	0.098101	0.246309	8913.992187
9824.618755	0.098123	0.246309	9000.536133
9824.619665	0.098145	0.246309	9089.847656
9824.620623	0.098053	0.246309	9183.782227
9824.621544	0.098221	0.246309	9274.244141
9824.622409	0.098134	0.246309	9359.129883
9825.585695	1.156740	0.273754	591.093933
9825.586702	1.572883	0.273754	2174.987549
9825.587583	1.551365	0.273754	3541.739746
9825.588598	1.506584	0.273754	5070.922852
9825.589660	1.459321	0.273754	6620.722168
9825.590549	1.421041	0.273754	7884.027832
9825.591426	0.708636	0.273754	8505.501953
9825.592543	0.100005	0.273754	8617.207031
9825.593512	0.098068	0.273754	8712.234375
9825.594381	0.098042	0.273754	8797.432617
9825.595399	0.098339	0.273754	8897.541016
9825.596442	0.098170	0.273754	8999.932617
9825.597333	0.098145	0.273754	9087.378906
9825.598260	0.098225	0.273754	9178.433594
9825.599321	0.098221	0.273754	9282.646484
9825.600267	0.098101	0.273754	9375.449219
9825.601130	0.098115	0.273754	9460.123047
9826.657723	1.061111	0.255284	447.788788
9826.658664	1.563384	0.255284	1918.932983
9826.659704	1.551174	0.255284	3532.154297
9826.660598	1.511246	0.255284	4883.208496
9826.661470	1.471564	0.255284	6166.412109
9826.662499	1.428252	0.255284	7636.083008
9826.663460	0.876757	0.255284	8478.646484
9826.664338	0.112690	0.255284	8577.588867
9826.665256	0.097998	0.255284	8667.550781
9826.666321	0.098049	0.255284	8771.973633
9826.667208	0.098148	0.255284	8859.031250
9826.668072	0.098199	0.255284	8943.875977
9826.669096	0.098119	0.255284	9044.349609
9826.670057	0.098174	0.255284	9138.694336
9826.670924	0.098108	0.255284	9223.753906
9826.671797	0.098123	0.255284	9309.415039
9826.672915	0.098141	0.255284	9419.136719
9827.641899	1.174918	0.267232	613.307312
9827.642928	1.573052	0.267232	2231.977539
9827.643821	1.549094	0.267232	3615.318848
9827.644759	1.506936	0.267232	5028.824707
9827.645826	1.459537	0.267232	6586.150879
9827.646778	1.419913	0.267232	7937.908203
9827.647651	0.693267	0.267232	8543.129883
9827.648703	0.100433	0.267232	8648.786133
9827.649696	0.098075	0.267232	8746.174805
9827.650592	0.098108	0.267232	8834.079102
9827.651557	0.098192	0.267232	8928.834961
9827.652602	0.098079	0.267232	9031.327148
9827.653518	0.098174	0.267232	9121.253906
9827.654375	0.098199	0.267232	9205.411133
9827.655435	0.098126	0.267232	9309.424805
9827.656446	0.098075	0.267232	9408.578125
9827.657317	0.098203	0.267232	9494.113281
9828.708869	1.134283	0.249954	564.873169
9828.709822	1.571884	0.249954	2062.878174
9828.710694	1.554646	0.249954	3418.529297
9828.711773	1.506709	0.249954	5044.268555
9828.712810	1.460856	0.249954	6559.175781
9828.713702	1.422971	0.249954	7828.465820
9828.714634	0.749139	0.249954	8526.664062
9828.715709	0.100778	0.249954	8635.000000
9828.716651	0.098181	0.249954	8727.486328
9828.717512	0.098185	0.249954	8812.023437
9828.718570	0.098339	0.249954	8916.065430
9828.719584	0.098097	0.249954	9015.536133
9828.720466	0.098101	0.249954	9102.060547
9828.721425	0.098185	0.249954	9196.219727
9828.722472	0.098093	0.249954	9298.923828
9828.723381	0.098060	0.249954	9388.060547
9828.724248	0.098170	0.249954	9473.173828
9829.697007	1.097139	0.261753	518.946594
9829.697889	1.567592	0.261753	1901.562256
9829.698815	1.555774	0.261753	3342.208984
9829.699789	1.512938	0.261753	4815.810547
9829.700703	1.471816	0.261753	6161.050781
9829.701582	1.434463	0.261753	7421.943359
9829.702603	0.994885	0.261753	8437.720703
9829.703506	0.122358	0.261753	8548.209961
9829.704377	0.098042	0.261753	8633.604492
9829.705238	0.098258	0.261753	8718.205078
9829.706289	0.098013	0.261753	8821.216797
9829.707165	0.098152	0.261753	8907.198242
9829.708028	0.098167	0.261753	8991.916016
9829.709033	0.098108	0.261753	9090.514648
9829.709952	0.098152	0.261753	9180.715820
9829.710853	0.098104	0.261753	9269.107422
9829.711727	0.098075	0.261753	9354.825195
9830.758932	1.145911	0.248299	585.560303
9830.759849	1.571133	0.248299	2026.289062
9830.760715	1.554844	0.248299	3372.783691
9830.761774	1.508035	0.248299	4969.792480
9830.762786	1.463119	0.248299	6450.468750
9830.763678	1.425839	0.248299	7722.316895
9830.764661	0.763502	0.248299	8472.839844
9830.765720	0.101360	0.248299	8580.179687
9830.766628	0.098188	0.248299	8669.334961
9830.767491	0.098185	0.248299	8754.068359
9830.768574	0.098218	0.248299	8860.438477
9830.769552	0.098086	0.248299	8956.366211
9830.770442	0.098108	0.248299	9043.682617
9830.771425	0.098188	0.248299	9140.202148
9830.772484	0.098265	0.248299	9244.265625
9830.773386	0.098130	0.248299	9332.778320
9830.774254	0.098115	0.248299	9417.942383
9831.752206	1.140055	0.259437	574.587708
9831.753117	1.570679	0.259437	2005.476074
9831.753983	1.555269	0.259437	3352.338623
9831.755071	1.507870	0.259437	4992.900879
9831.756070	1.462896	0.259437	6454.333496
9831.756966	1.425564	0.259437	7731.638672
9831.757963	0.739882	0.259437	8469.300781
9831.758996	0.101257	0.259437	8573.899414
9831.759900	0.098082	0.259437	8662.565430
9831.760760	0.098167	0.259437	8746.988281
9831.761853	0.098207	0.259437	8854.328125
9831.762834	0.098075	0.259437	8950.540039
9831.763716	0.098060	0.259437	9037.029297
9831.764723	0.098265	0.259437	9135.982422
9831.765759	0.098207	0.259437	9237.724609
9831.766637	0.098188	0.259437	9323.934570
9831.767515	0.098093	0.259437	9410.060547
9832.809920	1.071226	0.245072	456.342133
9832.810838	1.563523	0.245072	1891.656250
9832.811909	1.550555	0.245072	3552.301270
9832.812859	1.508203	0.245072	4985.094238
9832.813724	1.468905	0.245072	6255.697266
9832.814779	1.425132	0.245072	7759.211426
9832.815802	0.667419	0.245072	8441.981445
9832.816683	0.103052	0.245072	8532.770508
9832.817635	0.098079	0.245072	8626.141602
9832.818687	0.098101	0.245072	8729.343750
9832.819614	0.098203	0.245072	8820.377930
9832.820471	0.098137	0.245072	8904.481445
9832.821499	0.098265	0.245072	9005.498047
9832.822523	0.098199	0.245072	9106.054687
9832.823409	0.098192	0.245072	9193.052734
9832.824364	0.098258	0.245072	9286.889648
9832.825417	0.098163	0.245072	9390.254883
9833.806296	1.097541	0.265020	489.503479
9833.807160	1.564995	0.265020	1841.659424
9833.808253	1.550914	0.265020	3536.808594
9833.809247	1.506112	0.265020	5033.883789
9833.810130	1.466631	0.265020	6328.918945
9833.811130	1.425355	0.265020	7754.274414
9833.812186	0.653145	0.265020	8443.995117
9833.813065	0.101667	0.265020	8533.360352
9833.813929	0.098141	0.265020	8618.154297
9833.815037	0.098207	0.265020	8726.967773
9833.815995	0.098156	0.265020	8821.000977
9833.816865	0.098013	0.265020	8906.272461
9833.817892	0.098148	0.265020	9007.070312
9833.818931	0.098112	0.265020	9109.007812
9833.819828	0.098042	0.265020	9196.951172
9833.820740	0.098071	0.265020	9286.392578
9833.821817	0.098232	0.265020	9392.188477
9834.862109	1.142846	0.237571	586.279724
9834.862984	1.569613	0.237571	1959.691162
9834.863852	1.556829	0.237571	3311.018555
9834.864904	1.510122	0.237571	4899.666992
9834.865875	1.466843	0.237571	6323.971680
9834.866757	1.429471	0.237571	7584.765625
9834.867646	0.955854	0.237571	8434.520508
9834.868752	0.106827	0.237571	8552.671875
9834.869648	0.098005	0.237571	8640.484375
9834.870511	0.098123	0.237571	8725.164062
9834.871568	0.098174	0.237571	8828.933594
9834.872546	0.098152	0.237571	8924.925781
9834.873419	0.098071	0.237571	9010.541992
9834.874276	0.098148	0.237571	9094.655273
9834.875380	0.098152	0.237571	9203.014648
9834.876272	0.098082	0.237571	9290.503906
9834.877140	0.098214	0.237571	9375.753906
9835.861508	1.133892	0.257560	561.276306
9835.862465	1.571810	0.257560	2065.498779
9835.863334	1.554368	0.257560	3416.244141
9835.864370	1.508210	0.257560	4978.750000
9835.865411	1.462225	0.257560	6500.926758
9835.866303	1.424421	0.257560	7771.510742
9835.867213	0.813662	0.257560	8511.943359
9835.868275	0.102118	0.257560	8620.392578
9835.869223	0.098170	0.257560	8713.458008
9835.870087	0.098167	0.257560	8798.273437
9835.871119	0.098302	0.257560	8899.720703
9835.872132	0.098108	0.257560	8999.104492
9835.873011	0.098115	0.257560	9085.347656
9835.873957	0.098225	0.257560	9178.268555
9835.875014	0.098214	0.257560	9282.081055
9835.875954	0.098126	0.257560	9374.319336
9835.876814	0.098167	0.257560	9458.742187
9836.912108	1.120089	0.243791	528.682007
9836.912985	1.567511	0.243791	1903.389160
9836.913963	1.554884	0.243791	3424.065918
9836.915009	1.508086	0.243791	5001.523926
9836.915939	1.466151	0.243791	6365.044434
9836.916806	1.428501	0.243791	7603.554687
9836.917893	0.749615	0.243791	8418.386719
9836.918882	0.101583	0.243791	8518.852539
9836.919756	0.098031	0.243791	8604.531250
9836.920725	0.098232	0.243791	8699.718750
9836.921772	0.098163	0.243791	8802.495117
9836.922665	0.098137	0.243791	8890.131836
9836.923535	0.098126	0.243791	8975.501953
9836.924634	0.098218	0.243791	9083.443359
9836.925618	0.098108	0.243791	9179.981445
9836.926515	0.098141	0.243791	9268.013672
9836.927497	0.098254	0.243791	9364.499023
9837.913535	1.069014	0.268388	457.537811
9837.914570	1.567632	0.268388	2080.036621
9837.915538	1.549442	0.268388	3579.896484
9837.916464	1.508745	0.268388	4976.994141
9837.917331	1.467656	0.268388	6249.452148
9837.918418	1.423967	0.268388	7797.304687
9837.919329	0.779934	0.268388	8507.824219
9837.920210	0.106934	0.268388	8602.033203
9837.921220	0.098159	0.268388	8701.173828
9837.922189	0.098177	0.268388	8796.307617
9837.923109	0.098123	0.268388	8886.580078
9837.923973	0.098115	0.268388	8971.351562
9837.925070	0.098174	0.268388	9079.047852
9837.925972	0.098108	0.268388	9167.541016
9837.926845	0.098104	0.268388	9253.185547
9837.927861	0.098185	0.268388	9352.941406
9837.928857	0.098148	0.268388	9450.697266
9838.966203	1.062598	0.231045	448.416199
9838.967176	1.564783	0.231045	1970.949707
9838.968234	1.549028	0.231045	3609.821777
9838.969150	1.507738	0.231045	4990.910156
9838.970017	1.467155	0.231045	6262.933105
9838.971115	1.422598	0.231045	7824.945312
9838.972083	0.665321	0.231045	8468.976562
9838.972967	0.102792	0.231045	8559.844727
9838.973959	0.098119	0.231045	8657.178711
9838.975012	0.098167	0.231045	8760.547852
9838.975906	0.098185	0.231045	8848.325195
9838.976766	0.098203	0.231045	8932.780273
9838.977847	0.098247	0.231045	9038.985352
9838.978811	0.098057	0.231045	9133.511719
9838.979676	0.098079	0.231045	9218.349609
9838.980729	0.098265	0.231045	9321.823242
9838.981764	0.098082	0.231045	9423.338867
9839.967760	1.148317	0.254188	575.306641
9839.968722	1.572114	0.254188	2087.680664
9839.969590	1.553782	0.254188	3436.363281
9839.970615	1.508090	0.254188	4982.155273
9839.971662	1.461680	0.254188	6512.534180
9839.972561	1.423638	0.254188	7792.384277
9839.973497	0.771808	0.254188	8514.796875
9839.974561	0.101041	0.254188	8622.304687
9839.975508	0.098119	0.254188	8715.223633
9839.976369	0.098174	0.254188	8799.750977
9839.977404	0.098240	0.254188	8901.428711
9839.978416	0.098082	0.254188	9000.687500
9839.979295	0.098053	0.254188	9086.875977
9839.980239	0.098159	0.254188	9179.538086
9839.981297	0.098097	0.254188	9283.324219
9839.982218	0.098097	0.254188	9373.671875
9839.983079	0.098090	0.254188	9458.126953
9841.019341	1.091733	0.228052	474.904053
9841.020216	1.565087	0.228052	1844.354858
9841.021080	1.558561	0.228052	3190.951172
9841.022090	1.516410	0.228052	4722.525391
9841.023011	1.474607	0.228052	6080.638184
9841.023884	1.436979	0.228052	7335.120605
9841.024825	1.131273	0.228052	8399.648437
9841.025765	0.144950	0.228052	8535.901367
9841.026690	0.098020	0.228052	8626.570312
9841.027553	0.098108	0.228052	8711.237305
9841.028555	0.098097	0.228052	8809.530273
9841.029472	0.098090	0.228052	8899.478516
9841.030385	0.098119	0.228052	8989.061523
9841.031250	0.098221	0.228052	9074.023437
9841.032243	0.098115	0.228052	9171.452148
9841.033161	0.098273	0.228052	9261.666016
9841.034024	0.098199	0.228052	9346.412109
9842.018767	1.086207	0.264790	477.931213
9842.019633	1.564493	0.264790	1832.782471
9842.020723	1.551314	0.264790	3523.714355
9842.021734	1.505977	0.264790	5046.256836
9842.022612	1.466565	0.264790	6333.900879
9842.023618	1.425190	0.264790	7767.642578
9842.024682	0.634680	0.264790	8442.942383
9842.025559	0.101283	0.264790	8531.767578
9842.026428	0.098167	0.264790	8617.074219
9842.027529	0.098170	0.264790	8725.159180
9842.028501	0.098115	0.264790	8820.527344
9842.029367	0.098075	0.264790	8905.459961
9842.030424	0.098108	0.264790	9009.160156
9842.031464	0.098071	0.264790	9111.154297
9842.032358	0.098221	0.264790	9198.963867
9842.033286	0.098108	0.264790	9290.007812
9842.034344	0.098167	0.264790	9393.868164
9843.071472	1.128102	0.223242	533.592163
9843.072350	1.567808	0.223242	1910.127319
9843.073315	1.554199	0.223242	3409.929687
9843.074370	1.507416	0.223242	5000.253418
9843.075293	1.465880	0.223242	6353.260742
9843.076165	1.428336	0.223242	7598.770020
9843.077242	0.750505	0.223242	8407.064453
9843.078241	0.101429	0.223242	8508.392578
9843.079133	0.098101	0.223242	8595.898437
9843.080112	0.098181	0.223242	8692.017578
9843.081158	0.098123	0.223242	8794.653320
9843.082066	0.098013	0.223242	8883.648437
9843.082928	0.098049	0.223242	8968.166992
9843.084017	0.098159	0.223242	9075.062500
9843.085000	0.097980	0.223242	9171.376953
9843.085889	0.098134	0.223242	9258.617187
9843.086889	0.098210	0.223242	9356.828125
9844.071874	1.070775	0.261459	458.291779
9844.072744	1.563812	0.261459	1818.808350
9844.073827	1.551540	0.261459	3499.126709
9844.074821	1.507229	0.261459	4997.312500
9844.075712	1.467257	0.261459	6304.638672
9844.076698	1.426403	0.261459	7711.071777
9844.077763	0.673022	0.261459	8427.840820
9844.078661	0.101832	0.261459	8519.286133
9844.079522	0.098071	0.261459	8603.725586
9844.080628	0.098207	0.261459	8712.342773
9844.081599	0.098119	0.261459	8807.616211
9844.082475	0.098046	0.261459	8893.503906
9844.083492	0.098309	0.261459	8993.484375
9844.084523	0.098101	0.261459	9094.625977
9844.085404	0.098145	0.261459	9181.091797
9844.086280	0.098082	0.261459	9267.011719
9844.087360	0.098247	0.261459	9373.118164
9845.124601	1.131888	0.218670	533.119446
9845.125489	1.567837	0.218670	1925.358643
9845.126362	1.557854	0.218670	3285.365234
9845.127350	1.515297	0.218670	4782.478516
9845.128305	1.471355	0.218670	6187.622559
9845.129222	1.432965	0.218670	7501.651367
9845.130090	1.119983	0.218670	8473.796875
9845.131115	0.128298	0.218670	8605.302734
9845.132013	0.098027	0.218670	8693.331055
9845.132886	0.098152	0.218670	8779.017578
9845.133784	0.098053	0.218670	8867.069336
9845.134785	0.098075	0.218670	8965.242187
9845.135719	0.098167	0.218670	9056.929687
9845.136598	0.098097	0.218670	9143.157227
9845.137610	0.098038	0.218670	9242.372070
9845.138516	0.098119	0.218670	9331.267578
9845.139433	0.098203	0.218670	9421.320312
9846.126008	1.077107	0.250289	451.307800
9846.127104	1.570609	0.250289	2172.695557
9846.128067	1.547564	0.250289	3662.999268
9846.128944	1.508350	0.250289	4985.821777
9846.129958	1.463412	0.250289	6469.721191
9846.131007	1.419994	0.250289	7959.294922
9846.131893	0.672719	0.250289	8555.323242
9846.132779	0.103568	0.250289	8647.084961
9846.133882	0.098126	0.250289	8755.318359
9846.134833	0.098060	0.250289	8848.573242
9846.135692	0.098060	0.250289	8932.806641
9846.136714	0.098159	0.250289	9033.125000
9846.137747	0.098071	0.250289	9134.432617
9846.138635	0.098115	0.250289	9221.558594
9846.139583	0.098097	0.250289	9314.554687
9846.140642	0.098141	0.250289	9418.486328
9846.141581	0.098126	0.250289	9510.626953
9847.176756	1.139385	0.219037	623.243469
9847.177778	1.572978	0.219037	2230.827393
9847.178658	1.548779	0.219037	3593.753418
9847.179528	1.509148	0.219037	4906.711914
9847.180579	1.462877	0.219037	6444.195801
9847.181512	1.423616	0.219037	7772.429199
9847.182394	0.839407	0.219037	8512.786133
9847.183348	0.110918	0.219037	8618.601562
9847.184380	0.098079	0.219037	8719.818359
9847.185263	0.098156	0.219037	8806.489258
9847.186122	0.098130	0.219037	8890.783203
9847.187174	0.098240	0.219037	8994.131836
9847.188111	0.098174	0.219037	9086.121094
9847.188984	0.098174	0.219037	9171.827148
9847.189920	0.098174	0.219037	9263.717773
9847.190964	0.098002	0.219037	9366.031250
9847.191850	0.098079	0.219037	9452.928711
9848.178113	1.071475	0.249104	459.662598
9848.178980	1.563699	0.249104	1815.389282
9848.180044	1.552383	0.249104	3467.124512
9848.181059	1.507200	0.249104	4996.932129
9848.181949	1.467371	0.249104	6302.891602
9848.182923	1.426765	0.249104	7692.561035
9848.183989	0.685972	0.249104	8423.806641
9848.184899	0.101854	0.249104	8516.494141
9848.185759	0.098108	0.249104	8600.867187
9848.186837	0.098199	0.249104	8706.726562
9848.187805	0.098207	0.249104	8801.791016
9848.188689	0.098115	0.249104	8888.524414
9848.189710	0.098232	0.249104	8988.819336
9848.190753	0.098284	0.249104	9091.329102
9848.191643	0.098177	0.249104	9178.707031
9848.192514	0.098119	0.249104	9264.168945
9848.193606	0.098280	0.249104	9371.491211
9849.229857	1.133914	0.215162	597.572449
9849.230880	1.573169	0.215162	2206.924316
9849.231778	1.549142	0.215162	3598.053711
9849.232639	1.509496	0.215162	4897.729492
9849.233720	1.462346	0.215162	6478.525879
9849.234650	1.423216	0.215162	7802.117187
9849.235532	0.819716	0.215162	8525.106445
9849.236507	0.109442	0.215162	8631.812500
9849.237527	0.098035	0.215162	8731.807617
9849.238398	0.098134	0.215162	8817.282227
9849.239263	0.098101	0.215162	8902.139648
9849.240313	0.098167	0.215162	9005.214844
9849.241253	0.098115	0.215162	9097.443359
9849.242129	0.098130	0.215162	9183.405273
9849.243066	0.098192	0.215162	9275.411133
9849.244104	0.098177	0.215162	9377.319336
9849.245001	0.098236	0.215162	9465.437500
9850.229261	1.116321	0.242498	564.858276
9850.230306	1.571711	0.242498	2207.296875
9850.231226	1.548208	0.242498	3631.648193
9850.232089	1.508467	0.242498	4933.455078
9850.233171	1.461299	0.242498	6514.580566
9850.234184	1.418705	0.242498	7951.728516
9850.235070	0.656635	0.242498	8533.506836
9850.236051	0.102623	0.242498	8634.180664
9850.237107	0.098167	0.242498	8737.844727
9850.238001	0.098053	0.242498	8825.503906
9850.238861	0.098049	0.242498	8909.826172
9850.239936	0.098262	0.242498	9015.457031
9850.240930	0.098049	0.242498	9112.917969
9850.241821	0.098185	0.242498	9200.400391
9850.242801	0.098225	0.242498	9296.661133
9850.243850	0.098101	0.242498	9399.568359
9850.244748	0.098177	0.242498	9487.731445
9851.282995	1.167327	0.216116	616.348450
9851.284019	1.572865	0.216116	2226.962158
9851.284894	1.549416	0.216116	3582.701660
9851.285867	1.506218	0.216116	5048.251953
9851.286925	1.458948	0.216116	6591.818848
9851.287847	1.420357	0.216116	7901.387695
9851.288721	0.713419	0.216116	8524.916016
9851.289804	0.100254	0.216116	8633.491211
9851.290795	0.098090	0.216116	8730.698242
9851.291686	0.098174	0.216116	8818.170898
9851.292654	0.098295	0.216116	8913.320312
9851.293695	0.098082	0.216116	9015.423828
9851.294602	0.098071	0.216116	9104.374023
9851.295466	0.098112	0.216116	9189.142578
9851.296559	0.098210	0.216116	9296.486328
9851.297517	0.098093	0.216116	9390.459961
9851.298399	0.098119	0.216116	9477.000977
9852.280359	1.158314	0.245318	602.323425
9852.281247	1.570422	0.245318	1996.858398
9852.282122	1.555726	0.245318	3358.118896
9852.283009	1.515073	0.245318	4701.988770
9852.284056	1.469125	0.245318	6240.162598
9852.284947	1.431592	0.245318	7515.710937
9852.285822	1.097813	0.245318	8476.296875
9852.286838	0.136644	0.245318	8615.127930
9852.287744	0.098086	0.245318	8703.994141
9852.288655	0.098123	0.245318	8793.383789
9852.289523	0.098064	0.245318	8878.502930
9852.290535	0.098148	0.245318	8977.829102
9852.291431	0.098086	0.245318	9065.713867
9852.292307	0.098134	0.245318	9151.678711
9852.293261	0.098159	0.245318	9245.322266
9852.294230	0.098049	0.245318	9340.332031
9852.295150	0.097928	0.245318	9430.425781
9853.337075	1.123583	0.217542	538.196106
9853.337957	1.568152	0.217542	1921.305908
9853.338911	1.554653	0.217542	3404.445312
9853.339965	1.508038	0.217542	4993.917969
9853.340896	1.466034	0.217542	6358.795410
9853.341762	1.428940	0.217542	7596.257812
9853.342824	0.806675	0.217542	8452.946289
9853.343833	0.102964	0.217542	8556.836914
9853.344710	0.098057	0.217542	8642.833008
9853.345686	0.098214	0.217542	8738.690430
9853.346723	0.098156	0.217542	8840.477539
9853.347634	0.098108	0.217542	8929.853516
9853.348496	0.098181	0.217542	9014.485352
9853.349554	0.098093	0.217542	9118.267578
9853.350557	0.098097	0.217542	9216.659180
9853.351446	0.098254	0.217542	9304.007812
9853.352417	0.098254	0.217542	9399.413086
9854.332493	1.199872	0.234107	674.328003
9854.333542	1.572931	0.234107	2324.332520
9854.334432	1.546696	0.234107	3700.891602
9854.335347	1.505112	0.234107	5078.069336
9854.336405	1.458589	0.234107	6621.256348
9854.337357	1.418829	0.234107	7971.981934
9854.338229	0.673777	0.234107	8559.515625
9854.339268	0.100807	0.234107	8664.253906
9854.340291	0.098016	0.234107	8764.524414
9854.341163	0.098137	0.234107	8850.099609
9854.342108	0.098104	0.234107	8942.808594
9854.343162	0.098152	0.234107	9046.260742
9854.344095	0.098079	0.234107	9137.768555
9854.344967	0.098185	0.234107	9223.385742
9854.346022	0.098243	0.234107	9327.032227
9854.347029	0.098035	0.234107	9425.752930
9854.347920	0.098086	0.234107	9513.147461
9855.391166	1.067615	0.213748	452.668671
9855.392036	1.563831	0.213748	1813.201294
9855.393011	1.556400	0.213748	3330.691406
9855.393965	1.514158	0.213748	4775.197754
9855.394877	1.473259	0.213748	6118.810547
9855.395759	1.435627	0.213748	7385.033691
9855.396800	1.014027	0.213748	8440.635742
9855.397701	0.125197	0.213748	8553.437500
9855.398575	0.098009	0.213748	8639.097656
9855.399506	0.098287	0.213748	8730.603516
9855.400502	0.098207	0.213748	8828.417969
9855.401419	0.098057	0.213748	8918.335937
9855.402276	0.098119	0.213748	9002.423828
9855.403362	0.098181	0.213748	9109.048828
9855.404234	0.098101	0.213748	9194.592773
9855.405103	0.098225	0.213748	9279.950195
9855.405961	0.098130	0.213748	9364.145508
9856.382481	1.146661	0.230002	573.330688
9856.383494	1.572561	0.230002	2166.334961
9856.384388	1.550427	0.230002	3552.416992
9856.385347	1.507767	0.230002	4998.365723
9856.386403	1.460504	0.230002	6540.658203
9856.387332	1.421700	0.230002	7861.417969
9856.388209	0.754493	0.230002	8523.108398
9856.389286	0.101232	0.230002	8632.134766
9856.390277	0.098214	0.230002	8729.464844
9856.391177	0.098188	0.230002	8817.834961
9856.392168	0.098309	0.230002	8915.259766
9856.393217	0.098273	0.230002	9018.347656
9856.394108	0.098141	0.230002	9105.791016
9856.394966	0.098232	0.230002	9190.074219
9856.396057	0.098177	0.230002	9297.185547
9856.397022	0.098057	0.230002	9391.810547
9856.397893	0.098265	0.230002	9477.399414
9857.446415	1.138363	0.212515	574.873291
9857.447307	1.570067	0.212515	1975.373047
9857.448170	1.555323	0.212515	3317.617187
9857.449268	1.508276	0.212515	4973.704590
9857.450241	1.464569	0.212515	6398.730469
9857.451111	1.428109	0.212515	7641.185547
9857.452125	0.794143	0.212515	8446.446289
9857.453181	0.102612	0.212515	8554.804687
9857.454058	0.098123	0.212515	8640.858398
9857.454923	0.098115	0.212515	8725.728516
9857.456009	0.098221	0.212515	8832.397461
9857.456971	0.098196	0.212515	8926.861328
9857.457826	0.098196	0.212515	9010.818359
9857.458895	0.098210	0.212515	9115.805664
9857.459930	0.098148	0.212515	9217.388672
9857.460818	0.098192	0.212515	9304.583008
9857.461740	0.098232	0.212515	9395.153320
9858.432546	1.157091	0.222566	594.744873
9858.433512	1.572272	0.222566	2113.559326
9858.434374	1.553243	0.222566	3452.455078
9858.435457	1.505343	0.222566	5082.741699
9858.436500	1.459186	0.222566	6604.672363
9858.437375	1.421675	0.222566	7848.637695
9858.438315	0.716503	0.222566	8522.150391
9858.439361	0.100214	0.222566	8626.973633
9858.440301	0.098221	0.222566	8719.301758
9858.441170	0.098152	0.222566	8804.595703
9858.442199	0.098159	0.222566	8905.601562
9858.443226	0.098203	0.222566	9006.456055
9858.444116	0.098225	0.222566	9093.875977
9858.445062	0.098280	0.222566	9186.848633
9858.446107	0.098101	0.222566	9289.363281
9858.447042	0.098119	0.222566	9381.104492
9858.447906	0.098148	0.222566	9465.904297
9859.501589	1.109740	0.204523	569.296631
9859.502645	1.571514	0.204523	2228.814941
9859.503581	1.546641	0.204523	3676.470703
9859.504441	1.507302	0.204523	4972.750488
9859.505491	1.460350	0.204523	6506.118164
9859.506515	1.417775	0.204523	7957.919434
9859.507410	0.619365	0.204523	8512.250977
9859.508364	0.101986	0.204523	8609.545898
9859.509408	0.098035	0.204523	8711.894531
9859.510326	0.098126	0.204523	8801.974609
9859.511191	0.098141	0.204523	8886.866211
9859.512259	0.098247	0.204523	8991.793945
9859.513257	0.098042	0.204523	9089.639648
9859.514149	0.098141	0.204523	9177.181641
9859.515127	0.098236	0.204523	9273.256836
9859.516175	0.098090	0.204523	9376.054687
9859.517092	0.098170	0.204523	9466.077148
9860.482580	1.144735	0.218936	573.512268
9860.483519	1.571268	0.218936	2048.933105
9860.484394	1.554291	0.218936	3408.937500
9860.485341	1.512645	0.218936	4841.412598
9860.486365	1.466627	0.218936	6343.238770
9860.487254	1.428904	0.218936	7613.534180
9860.488118	1.014712	0.218936	8490.245117
9860.489193	0.112280	0.218936	8610.946289
9860.490125	0.097980	0.218936	8702.263672
9860.490993	0.098060	0.218936	8787.379883
9860.491919	0.098192	0.218936	8878.305664
9860.492980	0.098104	0.218936	8982.394531
9860.493876	0.098185	0.218936	9070.368164
9860.494740	0.098254	0.218936	9155.259766
9860.495773	0.098280	0.218936	9256.783203
9860.496727	0.098185	0.218936	9350.451172
9860.497604	0.098177	0.218936	9436.552734
9861.557696	1.081403	0.201566	459.596130
9861.558784	1.570719	0.201566	2168.538330
9861.559784	1.545791	0.201566	3714.329346
9861.560682	1.505471	0.201566	5066.242187
9861.561682	1.461262	0.201566	6527.504395
9861.562736	1.417987	0.201566	8022.062500
9861.563637	0.577174	0.201566	8542.096680
9861.564507	0.101528	0.201566	8630.426758
9861.565591	0.098254	0.201566	8736.934570
9861.566552	0.098104	0.201566	8831.212891
9861.567415	0.098130	0.201566	8915.899414
9861.568463	0.098265	0.201566	9018.881836
9861.569489	0.098159	0.201566	9119.592773
9861.570366	0.098090	0.201566	9205.617187
9861.571271	0.098229	0.201566	9294.514648
9861.572331	0.098229	0.201566	9398.636719
9861.573283	0.098141	0.201566	9492.066406
9862.532626	1.150847	0.225059	586.932007
9862.533518	1.570151	0.225059	1987.507080
9862.534386	1.553873	0.225059	3336.269043
9862.535508	1.506152	0.225059	5026.171875
9862.536471	1.463591	0.225059	6435.610352
9862.537340	1.426890	0.225059	7675.577637
9862.538359	0.749960	0.225059	8439.786133
9862.539399	0.101199	0.225059	8545.033203
9862.540282	0.098119	0.225059	8631.671875
9862.541169	0.098177	0.225059	8718.754883
9862.542247	0.098126	0.225059	8824.535156
9862.543207	0.098199	0.225059	8918.806641
9862.544071	0.098075	0.225059	9003.542969
9862.545109	0.098181	0.225059	9105.455078
9862.546125	0.098196	0.225059	9205.221680
9862.547005	0.098119	0.225059	9291.566406
9862.547937	0.098221	0.225059	9383.108398
9863.609799	1.076184	0.202686	465.987701
9863.610672	1.564808	0.202686	1832.065430
9863.611614	1.556957	0.202686	3298.718750
9863.612661	1.510898	0.202686	4880.629395
9863.613563	1.470110	0.202686	6206.668457
9863.614434	1.433035	0.202686	7454.841797
9863.615502	0.890464	0.202686	8405.857422
9863.616464	0.108344	0.202686	8510.083984
9863.617346	0.097961	0.202686	8596.486328
9863.618268	0.098130	0.202686	8686.961914
9863.619319	0.098108	0.202686	8790.073242
9863.620196	0.098057	0.202686	8876.069336
9863.621057	0.098090	0.202686	8960.524414
9863.622088	0.098225	0.202686	9061.794922
9863.623040	0.098086	0.202686	9155.172852
9863.623905	0.098119	0.202686	9240.045898
9863.624786	0.098145	0.202686	9326.511719
9864.583621	1.075847	0.233869	462.614288
9864.584596	1.564896	0.233869	1988.388062
9864.585652	1.548787	0.233869	3623.906738
9864.586559	1.507635	0.233869	4991.332031
9864.587421	1.467510	0.233869	6256.325684
9864.588510	1.423466	0.233869	7806.479492
9864.589500	0.660872	0.233869	8460.742187
9864.590379	0.102887	0.233869	8551.179687
9864.591392	0.098013	0.233869	8650.466797
9864.592444	0.098071	0.233869	8753.637695
9864.593336	0.098086	0.233869	8841.129883
9864.594199	0.098104	0.233869	8925.793945
9864.595289	0.098207	0.233869	9032.838867
9864.596251	0.098170	0.233869	9127.278320
9864.597119	0.098130	0.233869	9212.455078
9864.598143	0.098163	0.233869	9312.973633
9864.599186	0.098163	0.233869	9415.357422
9865.666012	1.110960	0.181819	498.820831
9865.666896	1.566936	0.181819	1883.992187
9865.667886	1.553998	0.181819	3422.449951
9865.668946	1.507218	0.181819	5020.101074
9865.669856	1.465840	0.181819	6354.015137
9865.670721	1.428036	0.181819	7589.266113
9865.671821	0.733110	0.181819	8395.687500
9865.672793	0.101719	0.181819	8494.558594
9865.673651	0.098038	0.181819	8578.675781
9865.674733	0.098185	0.181819	8684.912109
9865.675768	0.098137	0.181819	8786.484375
9865.676649	0.098093	0.181819	8872.904297
9865.677570	0.098068	0.181819	8963.224609
9865.678631	0.098145	0.181819	9067.355469
9865.679578	0.098152	0.181819	9160.305664
9865.680437	0.098134	0.181819	9244.602539
9865.681464	0.098350	0.181819	9345.607422
9866.634685	1.068303	0.238010	454.028870
9866.635650	1.564116	0.238010	1963.400879
9866.636558	1.554943	0.238010	3375.288818
9866.637471	1.514927	0.238010	4758.416992
9866.638355	1.474552	0.238010	6061.920898
9866.639332	1.432672	0.238010	7461.641602
9866.640299	1.031144	0.238010	8458.757812
9866.641195	0.129789	0.238010	8575.048828
9866.642181	0.098086	0.238010	8671.761719
9866.643083	0.098020	0.238010	8760.175781
9866.643996	0.098188	0.238010	8849.822266
9866.644856	0.098196	0.238010	8934.270508
9866.645884	0.098170	0.238010	9035.189453
9866.646757	0.098207	0.238010	9120.923828
9866.647668	0.098207	0.238010	9210.390625
9866.648544	0.098192	0.238010	9296.407227
9866.649545	0.098163	0.238010	9394.667969
9867.719140	1.117548	0.175471	514.071899
9867.720016	1.566819	0.175471	1886.605225
9867.721018	1.553654	0.175471	3443.366211
9867.722080	1.506610	0.175471	5043.386230
9867.722972	1.465701	0.175471	6350.791016
9867.723845	1.427483	0.175471	7596.983398
9867.724946	0.719114	0.175471	8388.727539
9867.725914	0.101462	0.175471	8486.943359
9867.726780	0.098027	0.175471	8571.834961
9867.727817	0.098229	0.175471	8673.698242
9867.728859	0.098159	0.175471	8775.980469
9867.729747	0.098126	0.175471	8863.116211
9867.730649	0.098185	0.175471	8951.678711
9867.731719	0.098137	0.175471	9056.685547
9867.732672	0.098207	0.175471	9150.276367
9867.733537	0.098145	0.175471	9235.171875
9867.734576	0.098243	0.175471	9337.247070
9868.686789	1.073342	0.243916	464.757172
9868.687651	1.563505	0.243916	1812.498169
9868.688699	1.553877	0.243916	3440.961426
9868.689592	1.513949	0.243916	4792.917969
9868.690465	1.474102	0.243916	6079.808594
9868.691336	1.435327	0.243916	7329.978516
9868.692378	1.036040	0.243916	8409.532227
9868.693272	0.131942	0.243916	8527.488281
9868.694145	0.098053	0.243916	8613.088867
9868.695130	0.098152	0.243916	8709.768555
9868.696071	0.098203	0.243916	8802.177734
9868.696991	0.098159	0.243916	8892.484375
9868.697856	0.098148	0.243916	8977.382812
9868.698884	0.098130	0.243916	9078.260742
9868.699765	0.098031	0.243916	9164.625977
9868.700638	0.098221	0.243916	9250.373047
9868.701612	0.098108	0.243916	9345.929687
9869.770168	1.070830	0.177944	452.961121
9869.771235	1.570386	0.177944	2128.562744
9869.772239	1.546816	0.177944	3681.566406
9869.773135	1.506654	0.177944	5031.528320
9869.774115	1.463295	0.177944	6465.557129
9869.775163	1.419705	0.177944	7953.407227
9869.776078	0.625400	0.177944	8525.648437
9869.776937	0.102506	0.177944	8613.701172
9869.778029	0.098181	0.177944	8720.915039
9869.779011	0.098031	0.177944	8817.181641
9869.779892	0.098013	0.177944	8903.531250
9869.780897	0.098181	0.177944	9002.203125
9869.781947	0.098086	0.177944	9105.193359
9869.782826	0.098145	0.177944	9191.462891
9869.783693	0.098156	0.177944	9276.563477
9869.784797	0.098276	0.177944	9385.060547
9869.785751	0.098090	0.177944	9478.637695
9870.741019	1.156952	0.231094	587.731567
9870.742053	1.572220	0.231094	2213.407471
9870.742923	1.549655	0.231094	3561.606934
9870.743897	1.506694	0.231094	5029.126953
9870.744946	1.459296	0.231094	6559.928223
9870.745879	1.420444	0.231094	7885.202637
9870.746753	0.730276	0.231094	8523.463867
9870.747828	0.100638	0.231094	8631.650391
9870.748821	0.098141	0.231094	8729.104492
9870.749712	0.098174	0.231094	8816.577148
9870.750690	0.098112	0.231094	8912.530273
9870.751734	0.098251	0.231094	9015.104492
9870.752641	0.098053	0.231094	9104.038086
9870.753502	0.098177	0.231094	9188.569336
9870.754580	0.098247	0.231094	9294.479492
9870.755556	0.098093	0.231094	9390.218750
9870.756449	0.098145	0.231094	9477.861328
9871.823300	1.072819	0.169791	462.384827
9871.824163	1.563453	0.169791	1811.645020
9871.825210	1.553049	0.169791	3437.687500
9871.826116	1.512920	0.169791	4808.393066
9871.826995	1.473212	0.169791	6103.346191
9871.827966	1.432767	0.169791	7494.563477
9871.828928	1.009750	0.169791	8465.942383
9871.829843	0.122417	0.169791	8577.954102
9871.830714	0.098071	0.169791	8663.374023
9871.831751	0.098167	0.169791	8765.172852
9871.832640	0.098038	0.169791	8852.329102
9871.833512	0.098101	0.169791	8937.873047
9871.834374	0.098203	0.169791	9022.524414
9871.835424	0.098071	0.169791	9125.499023
9871.836296	0.098112	0.169791	9211.052734
9871.837168	0.098115	0.169791	9296.609375
9871.838152	0.098243	0.169791	9393.281250
9872.793019	1.067706	0.231315	453.775208
9872.794057	1.568716	0.231315	2082.102295
9872.795088	1.546963	0.231315	3677.020996
9872.795989	1.506075	0.231315	5033.995117
9872.796935	1.464239	0.231315	6419.165527
9872.797992	1.419957	0.231315	7920.060547
9872.798934	0.622222	0.231315	8506.193359
9872.799792	0.102272	0.231315	8593.942383
9872.800862	0.098057	0.231315	8698.863281
9872.801878	0.098049	0.231315	8798.481445
9872.802758	0.097983	0.231315	8884.707031
9872.803742	0.098126	0.231315	8981.263672
9872.804779	0.098035	0.231315	9082.925781
9872.805691	0.098049	0.231315	9172.346680
9872.806549	0.098163	0.231315	9256.570312
9872.807603	0.098137	0.231315	9360.006836
9872.808608	0.097947	0.231315	9458.443359
9873.876409	1.068680	0.169875	448.845764
9873.877454	1.569492	0.169875	2088.965088
9873.878458	1.547527	0.169875	3642.682129
9873.879356	1.507504	0.169875	4996.420410
9873.880335	1.464236	0.169875	6429.907227
9873.881395	1.419829	0.169875	7934.926270
9873.882313	0.635973	0.169875	8518.749023
9873.883175	0.102510	0.169875	8607.112305
9873.884268	0.098119	0.169875	8714.356445
9873.885251	0.097921	0.169875	8810.613281
9873.886141	0.098013	0.169875	8897.844727
9873.887142	0.098188	0.169875	8996.131836
9873.888192	0.098097	0.169875	9099.133789
9873.889077	0.097976	0.169875	9185.842773
9873.889947	0.098090	0.169875	9271.180664
9873.891041	0.098262	0.169875	9378.678711
9873.891990	0.098027	0.169875	9471.707031
9874.847160	1.059906	0.217136	446.220428
9874.848152	1.563420	0.217136	1997.133545
9874.849032	1.554965	0.217136	3365.502441
9874.849943	1.515022	0.217136	4745.687500
9874.850820	1.475002	0.217136	6039.264648
9874.851788	1.433628	0.217136	7427.016602
9874.852719	1.100837	0.217136	8451.896484
9874.853601	0.146133	0.217136	8580.785156
9874.854587	0.097980	0.217136	8677.393555
9874.855509	0.097969	0.217136	8767.720703
9874.856428	0.098016	0.217136	8857.797852
9874.857292	0.098068	0.217136	8942.528320
9874.858327	0.097983	0.217136	9043.941406
9874.859199	0.098046	0.217136	9129.437500
9874.860111	0.098035	0.217136	9218.844727
9874.860985	0.098027	0.217136	9304.520508
9874.861955	0.098086	0.217136	9399.664062
9875.926491	1.089331	0.176119	498.913605
9875.927571	1.570855	0.176119	2195.436523
9875.928518	1.547410	0.176119	3660.833496
9875.929379	1.508306	0.176119	4959.484375
9875.930397	1.462504	0.176119	6448.312988
9875.931452	1.419404	0.176119	7945.784668
9875.932337	0.666284	0.176119	8535.446289
9875.933281	0.103195	0.176119	8632.862305
9875.934345	0.098031	0.176119	8737.166992
9875.935286	0.098024	0.176119	8829.407227
9875.936153	0.098053	0.176119	8914.418945
9875.937215	0.098119	0.176119	9018.621094
9875.938222	0.098086	0.176119	9117.393555
9875.939115	0.098009	0.176119	9204.916016
9875.940083	0.098053	0.176119	9299.831055
9875.941145	0.098075	0.176119	9403.986328
9875.942063	0.097958	0.176119	9493.911133
9876.900373	1.125168	0.216273	580.586914
9876.901398	1.572352	0.216273	2192.248047
9876.902287	1.549332	0.216273	3569.604492
9876.903150	1.510331	0.216273	4873.020020
9876.904208	1.463723	0.216273	6421.639160
9876.905148	1.424194	0.216273	7760.381836
9876.906029	0.863555	0.216273	8521.173828
9876.906968	0.112808	0.216273	8627.100586
9876.908020	0.097987	0.216273	8730.182617
9876.908899	0.098016	0.216273	8816.338867
9876.909765	0.098071	0.216273	8901.268555
9876.910785	0.098203	0.216273	9001.435547
9876.911746	0.097980	0.216273	9095.593750
9876.912621	0.097991	0.216273	9181.335937
9876.913524	0.098020	0.216273	9269.847656
9876.914596	0.098060	0.216273	9374.968750
9876.915487	0.097972	0.216273	9462.261719
9877.978564	1.073709	0.178846	462.768372
9877.979431	1.563365	0.178846	1818.206299
9877.980514	1.551610	0.178846	3498.600098
9877.981512	1.506687	0.178846	5002.273437
9877.982392	1.467429	0.178846	6293.611328
9877.983394	1.425938	0.178846	7722.400879
9877.984447	0.687491	0.178846	8446.329102
9877.985323	0.102883	0.178846	8536.455078
9877.986190	0.098035	0.178846	8621.451172
9877.987292	0.098101	0.178846	8729.557617
9877.988256	0.098060	0.178846	8824.087891
9877.989118	0.098031	0.178846	8908.590820
9877.990153	0.098112	0.178846	9010.136719
9877.991195	0.098024	0.178846	9112.277344
9877.992081	0.098086	0.178846	9199.181641
9877.993005	0.098064	0.178846	9289.792969
9877.994087	0.098174	0.178846	9396.016602
9878.955461	1.078707	0.198666	464.922852
9878.956329	1.563508	0.198666	1822.047974
9878.957412	1.551200	0.198666	3501.997559
9878.958344	1.509554	0.198666	4908.902344
9878.959224	1.469971	0.198666	6202.476562
9878.960182	1.430120	0.198666	7572.531250
9878.961209	0.845746	0.198666	8441.112305
9878.962102	0.109614	0.198666	8538.998047
9878.962964	0.097917	0.198666	8623.403320
9878.964015	0.098064	0.198666	8726.468750
9878.964948	0.097943	0.198666	8817.849609
9878.965825	0.098057	0.198666	8903.845703
9878.966756	0.098232	0.198666	8995.299805
9878.967803	0.097928	0.198666	9097.831055
9878.968680	0.097928	0.198666	9183.713867
9878.969536	0.097976	0.198666	9267.581055
9878.970552	0.098093	0.198666	9367.244141
9880.028610	1.072632	0.184977	458.013794
9880.029547	1.563160	0.184977	1922.695068
9880.030613	1.549343	0.184977	3574.294922
9880.031549	1.507335	0.184977	4985.160645
9880.032421	1.467642	0.184977	6264.944336
9880.033491	1.423261	0.184977	7787.833008
9880.034504	0.641693	0.184977	8437.868164
9880.035400	0.101715	0.184977	8529.004883
9880.036369	0.098027	0.184977	8623.993164
9880.037415	0.097965	0.184977	8726.464844
9880.038339	0.098027	0.184977	8817.041992
9880.039203	0.098038	0.184977	8901.747070
9880.040270	0.098086	0.184977	9006.404297
9880.041258	0.097961	0.184977	9103.190430
9880.042139	0.098071	0.184977	9189.590820
9880.043128	0.098093	0.184977	9286.605469
9880.044168	0.097991	0.184977	9388.515625
9881.009721	1.179492	0.196962	651.079651
9881.010766	1.572473	0.196962	2294.314209
9881.011673	1.546161	0.196962	3696.682129
9881.012534	1.505556	0.196962	4992.965332
9881.013640	1.458376	0.196962	6605.929687
9881.014606	1.418324	0.196962	7976.030762
9881.015473	0.668778	0.196962	8555.861328
9881.016547	0.100331	0.196962	8663.616211
9881.017571	0.097954	0.196962	8763.920898
9881.018451	0.098123	0.196962	8850.268555
9881.019371	0.098104	0.196962	8940.524414
9881.020425	0.098130	0.196962	9043.953125
9881.021364	0.098060	0.196962	9136.032227
9881.022224	0.098112	0.196962	9220.408203
9881.023239	0.098207	0.196962	9320.087891
9881.024263	0.097976	0.196962	9420.415039
9881.025149	0.098009	0.196962	9507.250977
9882.077681	1.132456	0.192398	528.856995
9882.078564	1.567192	0.192398	1912.687988
9882.079436	1.557653	0.192398	3270.960937
9882.080436	1.514744	0.192398	4785.704590
9882.081352	1.471564	0.192398	6133.657227
9882.082271	1.433009	0.192398	7450.592773
9882.083152	1.120668	0.192398	8437.901367
9882.084181	0.126163	0.192398	8567.723633
9882.085079	0.097921	0.192398	8655.657227
9882.085955	0.098101	0.192398	8741.593750
9882.086901	0.098049	0.192398	8834.348633
9882.087883	0.098042	0.192398	8930.625977
9882.088801	0.098104	0.192398	9020.685547
9882.089667	0.098068	0.192398	9105.612305
9882.090693	0.098009	0.192398	9206.169922
9882.091581	0.098020	0.192398	9293.211914
9882.092446	0.098079	0.192398	9378.049805
9883.063816	1.134056	0.193618	567.028198
9883.064718	1.569727	0.193618	1982.921631
9883.065590	1.554141	0.193618	3338.132324
9883.066694	1.506438	0.193618	5001.239746
9883.067672	1.462643	0.193618	6431.704102
9883.068559	1.425850	0.193618	7696.432617
9883.069557	0.760258	0.193618	8455.169922
9883.070607	0.101356	0.193618	8561.593750
9883.071497	0.097969	0.193618	8648.786133
9883.072371	0.098057	0.193618	8734.487305
9883.073469	0.098064	0.193618	8842.161133
9883.074435	0.098016	0.193618	8936.844727
9883.075297	0.098020	0.193618	9021.337891
9883.076340	0.098108	0.193618	9123.664062
9883.077354	0.097917	0.193618	9222.952148
9883.078231	0.097976	0.193618	9308.876953
9883.079147	0.098075	0.193618	9398.713867
9884.128698	1.062792	0.191274	448.498138
9884.129648	1.563040	0.191274	1933.385742
9884.130678	1.550643	0.191274	3530.548340
9884.131571	1.510715	0.191274	4879.617187
9884.132438	1.470795	0.191274	6154.795898
9884.133514	1.426458	0.191274	7689.664062
9884.134466	0.831021	0.191274	8480.795898
9884.135344	0.109794	0.191274	8577.194336
9884.136295	0.098027	0.191274	8670.417969
9884.137324	0.097998	0.191274	8771.257812
9884.138203	0.098027	0.191274	8857.423828
9884.139065	0.098101	0.191274	8941.986328
9884.140102	0.098112	0.191274	9043.728516
9884.141050	0.098020	0.191274	9136.651367
9884.141912	0.098079	0.191274	9221.195312
9884.142838	0.098035	0.191274	9311.975586
9884.143894	0.098141	0.191274	9415.612305
9885.118955	1.097190	0.188107	514.582092
9885.120039	1.571356	0.188107	2217.932129
9885.120991	1.546190	0.188107	3689.905273
9885.121860	1.506482	0.188107	4999.038086
9885.122920	1.459687	0.188107	6546.306641
9885.123938	1.417445	0.188107	7989.265625
9885.124834	0.605958	0.188107	8532.204102
9885.125800	0.101898	0.188107	8630.637695
9885.126843	0.098068	0.188107	8732.921875
9885.127758	0.097998	0.188107	8822.589844
9885.128617	0.098031	0.188107	8906.798828
9885.129690	0.098134	0.188107	9012.095703
9885.130687	0.098060	0.188107	9109.862305
9885.131556	0.098027	0.188107	9195.047852
9885.132518	0.098057	0.188107	9289.377930
9885.133579	0.097950	0.188107	9393.303711
9885.134489	0.097958	0.188107	9482.445312
9886.178776	1.090616	0.188083	496.230499
9886.179881	1.570895	0.188083	2232.069092
9886.180839	1.545842	0.188083	3712.985840
9886.181707	1.506346	0.188083	5020.494629
9886.182757	1.460207	0.188083	6553.712402
9886.183784	1.417566	0.188083	8009.552734
9886.184670	0.606841	0.188083	8547.213867
9886.185618	0.101938	0.188083	8643.851562
9886.186677	0.098130	0.188083	8747.771484
9886.187594	0.098112	0.188083	8837.740234
9886.188457	0.098126	0.188083	8922.422852
9886.189491	0.098207	0.188083	9023.968750
9886.190511	0.098174	0.188083	9124.106445
9886.191404	0.098137	0.188083	9211.743164
9886.192368	0.098196	0.188083	9306.404297
9886.193423	0.098203	0.188083	9410.008789
9886.194348	0.098123	0.188083	9500.772461
9887.172026	1.059639	0.195129	443.988617
9887.172926	1.562325	0.195129	1850.081421
9887.173920	1.553024	0.195129	3393.786865
9887.174854	1.512228	0.195129	4806.207520
9887.175736	1.472695	0.195129	6105.125000
9887.176727	1.431599	0.195129	7523.839844
9887.177651	1.011266	0.195129	8458.250000
9887.178567	0.124424	0.195129	8572.222656
9887.179431	0.097936	0.195129	8656.838867
9887.180469	0.097969	0.195129	8758.530273
9887.181352	0.098020	0.195129	8845.082031
9887.182217	0.097976	0.195129	8929.831055
9887.183177	0.098060	0.195129	9023.968750
9887.184126	0.097965	0.195129	9116.937500
9887.185043	0.098170	0.195129	9206.959961
9887.185919	0.098049	0.195129	9292.851562
9887.186949	0.098159	0.195129	9393.955078
9888.228908	1.153883	0.186061	619.635254
9888.229962	1.572089	0.186061	2276.616699
9888.230881	1.545864	0.186061	3697.265869
9888.231748	1.505284	0.186061	5002.347656
9888.232848	1.457882	0.186061	6606.018066
9888.233826	1.416918	0.186061	7991.763672
9888.234719	0.603479	0.186061	8530.669922
9888.235712	0.100972	0.186061	8630.934570
9888.236762	0.098115	0.186061	8733.955078
9888.237649	0.098075	0.186061	8820.947266
9888.238509	0.098024	0.186061	8905.248047
9888.239604	0.098104	0.186061	9012.671875
9888.240560	0.098115	0.186061	9106.469727
9888.241422	0.098002	0.186061	9190.947266
9888.242477	0.098167	0.186061	9294.512695
9888.243500	0.098046	0.186061	9394.813477
9888.244380	0.098130	0.186061	9481.167969
9889.226255	1.145848	0.191882	575.215881
9889.227205	1.571525	0.191882	2068.164307
9889.228067	1.553778	0.191882	3407.520996
9889.229123	1.507006	0.191882	4998.918945
9889.230154	1.461321	0.191882	6505.540527
9889.231040	1.423971	0.191882	7767.178711
9889.231998	0.771368	0.191882	8506.149414
9889.233039	0.101759	0.191882	8612.080078
9889.233973	0.097950	0.191882	8703.565430
9889.234832	0.098130	0.191882	8787.859375
9889.235882	0.098126	0.191882	8890.891602
9889.236894	0.098016	0.191882	8990.083984
9889.237764	0.098123	0.191882	9075.450195
9889.238738	0.098159	0.191882	9171.057617
9889.239788	0.098079	0.191882	9274.040039
9889.240705	0.098090	0.191882	9363.988281
9889.241570	0.098119	0.191882	9448.861328
9890.280897	1.065659	0.182560	453.970795
9890.281857	1.563395	0.182560	1954.829712
9890.282917	1.549288	0.182560	3597.075439
9890.283851	1.507061	0.182560	5004.669922
9890.284714	1.467312	0.182560	6270.959961
9890.285784	1.423660	0.182560	7794.275879
9890.286790	0.659341	0.182560	8457.572266
9890.287658	0.102634	0.182560	8546.659180
9890.288623	0.098075	0.182560	8641.301758
9890.289663	0.098079	0.182560	8743.303711
9890.290581	0.098137	0.182560	8833.393555
9890.291450	0.098064	0.182560	8918.611328
9890.292505	0.098101	0.182560	9022.107422
9890.293511	0.097983	0.182560	9120.678711
9890.294402	0.098174	0.182560	9208.151367
9890.295362	0.098152	0.182560	9302.376953
9890.296415	0.098115	0.182560	9405.692383
9891.279381	1.150697	0.196160	588.006165
9891.280320	1.571364	0.196160	2063.516602
9891.281190	1.553540	0.196160	3415.096436
9891.282225	1.507507	0.196160	4975.366211
9891.283255	1.461863	0.196160	6481.084961
9891.284144	1.424447	0.196160	7747.418457
9891.285097	0.788005	0.196160	8498.387695
9891.286150	0.101649	0.196160	8605.423828
9891.287091	0.098049	0.196160	8697.688477
9891.287962	0.098064	0.196160	8783.102539
9891.289022	0.098115	0.196160	8887.104492
9891.290025	0.098079	0.196160	8985.477539
9891.290916	0.098035	0.196160	9072.826172
9891.291880	0.098170	0.196160	9167.461914
9891.292921	0.098097	0.196160	9269.581055
9891.293838	0.098090	0.196160	9359.529297
9891.294700	0.097980	0.196160	9443.988281
9892.331962	1.067497	0.182053	452.618927
9892.332996	1.569243	0.182053	2075.216309
9892.333901	1.552375	0.182053	3480.116211
9892.334783	1.513019	0.182053	4814.598633
9892.335665	1.471860	0.182053	6112.779297
9892.336701	1.429200	0.182053	7593.430664
9892.337588	1.019524	0.182053	8497.748047
9892.338458	0.131598	0.182053	8612.238281
9892.339462	0.097976	0.182053	8710.606445
9892.340366	0.098057	0.182053	8799.250000
9892.341281	0.098035	0.182053	8888.952148
9892.342155	0.098075	0.182053	8974.669922
9892.343177	0.097994	0.182053	9074.820312
9892.344075	0.097976	0.182053	9162.802734
9892.344950	0.098115	0.182053	9248.653320
9892.345899	0.098082	0.182053	9341.733398
9892.346877	0.098024	0.182053	9437.600586
9893.332488	1.137532	0.194859	569.903381
9893.333440	1.571312	0.194859	2065.792725
9893.334304	1.553936	0.194859	3408.393066
9893.335355	1.507258	0.194859	4992.521484
9893.336387	1.461427	0.194859	6500.713867
9893.337282	1.423744	0.194859	7774.964844
9893.338233	0.770757	0.194859	8507.955078
9893.339276	0.101678	0.194859	8614.005859
9893.340206	0.097925	0.194859	8705.076172
9893.341068	0.098141	0.194859	8789.673828
9893.342136	0.098167	0.194859	8894.515625
9893.343154	0.097947	0.194859	8994.225586
9893.344032	0.098126	0.194859	9080.380859
9893.345014	0.098038	0.194859	9176.654297
9893.346064	0.097983	0.194859	9279.537109
9893.346965	0.098141	0.194859	9367.961914
9893.347829	0.098038	0.194859	9452.666992
9894.383102	1.147537	0.178625	562.292969
9894.383982	1.567830	0.178625	1941.983032
9894.384983	1.552317	0.178625	3495.852295
9894.386029	1.505468	0.178625	5070.571289
9894.386937	1.464580	0.178625	6400.410156
9894.387798	1.426772	0.178625	7628.861328
9894.388886	0.711185	0.178625	8402.630859
9894.389870	0.100686	0.178625	8501.706055
9894.390761	0.097947	0.178625	8588.976562
9894.391735	0.098042	0.178625	8684.469727
9894.392783	0.098038	0.178625	8787.213867
9894.393680	0.098090	0.178625	8875.200195
9894.394546	0.098020	0.178625	8960.085937
9894.395643	0.098060	0.178625	9067.658203
9894.396614	0.097954	0.178625	9162.771484
9894.397477	0.098068	0.178625	9247.404297
9894.398537	0.098126	0.178625	9351.417969
9895.386583	1.085702	0.185408	477.708801
9895.387456	1.564947	0.185408	1843.907959
9895.388331	1.558909	0.185408	3207.953125
9895.389272	1.518270	0.185408	4636.645508
9895.390218	1.474105	0.185408	6031.148926
9895.391146	1.435496	0.185408	7363.289062
9895.392016	1.149089	0.185408	8362.997070
9895.393057	0.132784	0.185408	8501.225586
9895.393951	0.097972	0.185408	8588.812500
9895.394871	0.098123	0.185408	8679.084961
9895.395732	0.098009	0.185408	8763.470703
9895.396723	0.098079	0.185408	8860.666992
9895.397652	0.098060	0.185408	8951.764648
9895.398511	0.098086	0.185408	9036.020508
9895.399518	0.098156	0.185408	9134.863281
9895.400416	0.098005	0.185408	9222.872070
9895.401326	0.098225	0.185408	9312.256836
9896.437173	1.059690	0.169658	446.129486
9896.438160	1.565197	0.169658	1990.978516
9896.439224	1.548054	0.169658	3638.108154
9896.440124	1.507218	0.169658	4994.604492
9896.440989	1.466708	0.169658	6263.306641
9896.442103	1.421583	0.169658	7846.950195
9896.443075	0.650299	0.169658	8479.041016
9896.443945	0.102590	0.169658	8568.294922
9896.444983	0.098181	0.169658	8670.207031
9896.446022	0.098108	0.169658	8772.141602
9896.446912	0.098251	0.169658	8859.584961
9896.447834	0.098188	0.169658	8950.114258
9896.448887	0.098167	0.169658	9053.483398
9896.449831	0.098181	0.169658	9146.166016
9896.450693	0.098097	0.169658	9230.725586
9896.451728	0.098280	0.169658	9332.445312
9896.452739	0.098148	0.169658	9431.672852
9897.436622	1.086866	0.195773	473.873749
9897.437493	1.564482	0.195773	1836.537964
9897.438353	1.558422	0.195773	3176.780518
9897.439416	1.513850	0.195773	4786.002930
9897.440298	1.473534	0.195773	6085.659668
9897.441168	1.436451	0.195773	7335.372559
9897.442139	1.102342	0.195773	8405.747070
9897.443087	0.141486	0.195773	8539.875000
9897.443997	0.097976	0.195773	8629.033203
9897.444879	0.098134	0.195773	8715.586914
9897.445911	0.098013	0.195773	8816.736328
9897.446810	0.098185	0.195773	8905.004883
9897.447686	0.098101	0.195773	8990.941406
9897.448591	0.098229	0.195773	9079.838867
9897.449601	0.098163	0.195773	9178.983398
9897.450509	0.098170	0.195773	9268.122070
9897.451378	0.098038	0.195773	9353.317383
9898.489328	1.128113	0.169932	534.725464
9898.490200	1.566969	0.169932	1901.122314
9898.491196	1.553738	0.169932	3448.645020
9898.492232	1.507339	0.169932	5010.248047
9898.493138	1.465906	0.169932	6338.358398
9898.494013	1.428201	0.169932	7588.034180
9898.495081	0.768406	0.169932	8408.691406
9898.496081	0.101799	0.169932	8510.490234
9898.496970	0.098112	0.169932	8597.710937
9898.497954	0.098221	0.169932	8694.360352
9898.499010	0.098174	0.169932	8798.032227
9898.499909	0.098196	0.169932	8886.310547
9898.500769	0.098185	0.169932	8970.749023
9898.501879	0.098214	0.169932	9079.766602
9898.502844	0.098071	0.169932	9174.405273
9898.503711	0.098112	0.169932	9259.467773
9898.504774	0.098137	0.169932	9363.788086
9899.490741	1.059869	0.186476	443.025421
9899.491638	1.562545	0.186476	1844.628418
9899.492671	1.552419	0.186476	3448.277832
9899.493572	1.512363	0.186476	4810.916992
9899.494452	1.472739	0.186476	6106.927734
9899.495461	1.430852	0.186476	7550.657227
9899.496399	0.973491	0.186476	8463.791992
9899.497324	0.117656	0.186476	8572.624023
9899.498192	0.097961	0.186476	8657.654297
9899.499225	0.098049	0.186476	8758.939453
9899.500100	0.098064	0.186476	8844.745117
9899.500968	0.098119	0.186476	8929.912109
9899.501944	0.098188	0.186476	9025.744141
9899.502866	0.098145	0.186476	9116.233398
9899.503777	0.098112	0.186476	9205.613281
9899.504656	0.098112	0.186476	9291.853516
9899.505677	0.098167	0.186476	9392.081055
9900.541460	1.149181	0.166802	582.634705
9900.542465	1.572400	0.166802	2162.896484
9900.543361	1.549904	0.166802	3551.610107
9900.544351	1.506017	0.166802	5042.566895
9900.545418	1.458570	0.166802	6598.861328
9900.546329	1.420305	0.166802	7892.759277
9900.547194	0.729020	0.166802	8523.361328
9900.548283	0.100679	0.166802	8633.000000
9900.549266	0.098068	0.166802	8729.400391
9900.550153	0.098145	0.166802	8816.455078
9900.551150	0.098258	0.166802	8914.417969
9900.552189	0.098247	0.166802	9016.497070
9900.553064	0.098163	0.166802	9102.389648
9900.553927	0.098119	0.166802	9187.066406
9900.555013	0.098295	0.166802	9293.814453
9900.555977	0.098027	0.166802	9388.312500
9900.556834	0.098141	0.166802	9472.418945
9901.542878	1.113292	0.184002	497.641632
9901.543809	1.568181	0.184002	1957.618286
9901.544674	1.555507	0.184002	3303.131348
9901.545725	1.510400	0.184002	4890.562012
9901.546614	1.470194	0.184002	6197.564453
9901.547484	1.433375	0.184002	7444.601074
9901.548473	0.985386	0.184002	8419.147461
9901.549412	0.120062	0.184002	8531.885742
9901.550335	0.097863	0.184002	8622.212891
9901.551211	0.098214	0.184002	8708.248047
9901.552245	0.098086	0.184002	8809.668945
9901.553141	0.098020	0.184002	8897.495117
9901.554016	0.098181	0.184002	8983.403320
9901.554971	0.098273	0.184002	9077.253906
9901.555934	0.098068	0.184002	9171.693359
9901.556807	0.098104	0.184002	9257.337891
9901.557683	0.098119	0.184002	9343.290039
9902.593472	1.075800	0.165658	461.518036
9902.594539	1.569379	0.165658	2136.045166
9902.595561	1.545842	0.165658	3715.895996
9902.596432	1.506017	0.165658	5027.636719
9902.597390	1.463525	0.165658	6429.694336
9902.598453	1.419166	0.165658	7938.268066
9902.599380	0.615095	0.165658	8508.460937
9902.600246	0.102147	0.165658	8596.920898
9902.601312	0.098159	0.165658	8701.558594
9902.602310	0.098086	0.165658	8799.448242
9902.603206	0.098101	0.165658	8887.346680
9902.604183	0.098240	0.165658	8983.327148
9902.605228	0.098163	0.165658	9085.907227
9902.606135	0.098112	0.165658	9174.894531
9902.606995	0.098163	0.165658	9259.314453
9902.608074	0.098317	0.165658	9365.398437
9902.609063	0.098123	0.165658	9462.441406
9903.595035	1.152462	0.185578	584.298340
9903.595949	1.570298	0.185578	2019.550537
9903.596828	1.554349	0.185578	3385.823730
9903.597818	1.510851	0.185578	4881.565918
9903.598834	1.464639	0.185578	6369.638672
9903.599727	1.427318	0.185578	7644.233887
9903.600597	0.955016	0.185578	8475.097656
9903.601688	0.106743	0.185578	8591.554687
9903.602612	0.097925	0.185578	8682.037109
9903.603491	0.098068	0.185578	8768.238281
9903.604451	0.098134	0.185578	8862.446289
9903.605454	0.098141	0.185578	8960.881836
9903.606335	0.098181	0.185578	9047.379883
9903.607195	0.098247	0.185578	9131.872070
9903.608259	0.098123	0.185578	9236.274414
9903.609188	0.098148	0.185578	9327.454102
9903.610053	0.098229	0.185578	9412.421875
9904.645574	1.068677	0.169911	461.668335
9904.646442	1.563838	0.169911	1819.079590
9904.647471	1.553306	0.169911	3417.431152
9904.648505	1.507958	0.169911	4976.659180
9904.649400	1.467059	0.169911	6289.677246
9904.650312	1.428417	0.169911	7592.393555
9904.651388	0.755548	0.169911	8405.363281
9904.652335	0.103052	0.169911	8502.953125
9904.653195	0.098053	0.169911	8587.278320
9904.654228	0.098254	0.169911	8688.775391
9904.655248	0.098027	0.169911	8788.763672
9904.656132	0.098152	0.169911	8875.530273
9904.657069	0.098086	0.169911	8967.436523
9904.658124	0.098174	0.169911	9071.009766
9904.659045	0.098130	0.169911	9161.387695
9904.659914	0.098101	0.169911	9246.636719
9904.660946	0.098148	0.169911	9347.925781
9905.645066	1.138748	0.188623	567.096313
9905.645947	1.568492	0.188623	1948.938110
9905.646861	1.554349	0.188623	3369.613281
9905.647944	1.506899	0.188623	5001.585449
9905.648891	1.464306	0.188623	6388.282715
9905.649758	1.427688	0.188623	7626.088379
9905.650807	0.768611	0.188623	8432.361328
9905.651831	0.101719	0.188623	8536.521484
9905.652708	0.098104	0.188623	8622.558594
9905.653638	0.098188	0.188623	8713.874023
9905.654702	0.098159	0.188623	8818.315430
9905.655635	0.098170	0.188623	8909.908203
9905.656507	0.098130	0.188623	8995.477539
9905.657541	0.098137	0.188623	9096.951172
9905.658560	0.098148	0.188623	9196.963867
9905.659455	0.098104	0.188623	9284.767578
9905.660411	0.098254	0.188623	9378.699219
9906.698713	1.079791	0.171426	488.065613
9906.699572	1.564911	0.171426	1832.323975
9906.700592	1.552994	0.171426	3416.378174
9906.701639	1.506833	0.171426	4994.032715
9906.702528	1.466722	0.171426	6297.948730
9906.703442	1.428516	0.171426	7603.611816
9906.704326	1.003975	0.171426	8491.125000
9906.705276	0.115587	0.171426	8600.932617
9906.706222	0.098031	0.171426	8693.669922
9906.707111	0.098145	0.171426	8780.919922
9906.708099	0.098251	0.171426	8877.991211
9906.709011	0.098196	0.171426	8967.545898
9906.709920	0.098141	0.171426	9056.755859
9906.710794	0.098225	0.171426	9142.604492
9906.711741	0.098148	0.171426	9235.550781
9906.712668	0.098167	0.171426	9326.550781
9906.713589	0.098148	0.171426	9416.945312
9907.697196	1.175101	0.185066	620.453552
9907.698238	1.572250	0.185066	2258.737793
9907.699137	1.547150	0.185066	3649.625488
9907.700074	1.504852	0.185066	5059.671875
9907.701157	1.457208	0.185066	6637.828613
9907.702094	1.418038	0.185066	7966.530273
9907.702975	0.647344	0.185066	8536.839844
9907.704032	0.099752	0.185066	8642.278320
9907.705034	0.098068	0.185066	8740.541992
9907.705928	0.098093	0.185066	8828.237305
9907.706891	0.098104	0.185066	8922.711914
9907.707936	0.098167	0.185066	9025.295898
9907.708859	0.098112	0.185066	9115.852539
9907.709721	0.098137	0.185066	9200.447266
9907.710800	0.098199	0.185066	9306.404297
9907.711783	0.098020	0.185066	9402.757812
9907.712662	0.098097	0.185066	9488.985352
9908.751830	1.098984	0.174161	479.157196
9908.752724	1.566196	0.174161	1879.336670
9908.753591	1.558407	0.174161	3230.475586
9908.754606	1.515121	0.174161	4768.323242
9908.755510	1.472666	0.174161	6099.613281
9908.756420	1.434210	0.174161	7404.744629
9908.757301	1.112314	0.174161	8384.693359
9908.758333	0.127980	0.174161	8516.768555
9908.759226	0.098108	0.174161	8604.378906
9908.760102	0.098221	0.174161	8690.420898
9908.761071	0.098141	0.174161	8785.519531
9908.762021	0.098053	0.174161	8878.669922
9908.762934	0.098130	0.174161	8968.262695
9908.763797	0.098112	0.174161	9052.932617
9908.764824	0.098108	0.174161	9153.689453
9908.765703	0.098090	0.174161	9239.910156
9908.766575	0.098203	0.174161	9325.542969
9909.747225	1.147075	0.181255	576.978882
9909.748242	1.572122	0.181255	2175.826660
9909.749121	1.550277	0.181255	3538.520020
9909.750124	1.506112	0.181255	5049.150391
9909.751180	1.459083	0.181255	6589.942383
9909.752085	1.420781	0.181255	7875.749512
9909.752950	0.742489	0.181255	8518.002930
9909.754011	0.101100	0.181255	8625.269531
9909.755015	0.098152	0.181255	8723.814453
9909.755913	0.098163	0.181255	8811.964844
9909.756897	0.098141	0.181255	8908.535156
9909.757955	0.098229	0.181255	9012.460937
9909.758838	0.098247	0.181255	9099.212891
9909.759717	0.098145	0.181255	9185.482422
9909.760809	0.098225	0.181255	9292.744141
9909.761776	0.098060	0.181255	9387.568359
9909.762643	0.098031	0.181255	9472.561523
9910.805945	1.068578	0.168671	453.077026
9910.806974	1.568331	0.168671	2066.889893
9910.808010	1.546344	0.168671	3668.902344
9910.808903	1.506398	0.168671	5014.115234
9910.809859	1.464163	0.168671	6413.854492
9910.810908	1.419924	0.168671	7903.354980
9910.811841	0.649270	0.168671	8509.124023
9910.812707	0.102726	0.168671	8598.084961
9910.813776	0.098258	0.168671	8703.123047
9910.814778	0.098038	0.168671	8801.357422
9910.815667	0.098090	0.168671	8888.558594
9910.816638	0.098181	0.168671	8983.892578
9910.817682	0.098086	0.168671	9086.293945
9910.818595	0.098009	0.168671	9175.776367
9910.819459	0.098141	0.168671	9260.570312
9910.820532	0.098218	0.168671	9365.958008
9910.821521	0.098009	0.168671	9462.888672
9911.797264	1.144131	0.182540	580.074341
9911.798220	1.571488	0.182540	2082.416992
9911.799082	1.553624	0.182540	3421.641113
9911.800134	1.506811	0.182540	5006.806641
9911.801172	1.460903	0.182540	6523.224121
9911.802070	1.422832	0.182540	7800.927246
9911.803030	0.747927	0.182540	8518.937500
9911.804074	0.100909	0.182540	8624.287109
9911.805005	0.098038	0.182540	8715.560547
9911.805867	0.098141	0.182540	8800.158203
9911.806922	0.098170	0.182540	8903.727539
9911.807941	0.098101	0.182540	9003.692383
9911.808822	0.098203	0.182540	9090.208984
9911.809793	0.098192	0.182540	9185.553711
9911.810832	0.098119	0.182540	9287.499023
9911.811756	0.098181	0.182540	9378.218750
9911.812617	0.098218	0.182540	9462.784180
9912.861171	1.130017	0.167160	533.368042
9912.862056	1.567544	0.167160	1920.644409
9912.863036	1.553492	0.167160	3443.066895
9912.864080	1.506577	0.167160	5015.933594
9912.865002	1.464928	0.167160	6366.597168
9912.865863	1.427904	0.167160	7596.022461
9912.866949	0.755233	0.167160	8416.206055
9912.867953	0.101364	0.167160	8517.974609
9912.868829	0.098075	0.167160	8603.888672
9912.869790	0.098243	0.167160	8698.300781
9912.870845	0.098192	0.167160	8801.893555
9912.871751	0.098218	0.167160	8890.878906
9912.872618	0.098167	0.167160	8975.989258
9912.873697	0.098302	0.167160	9082.056641
9912.874691	0.098126	0.167160	9179.593750
9912.875585	0.098207	0.167160	9267.390625
9912.876564	0.098210	0.167160	9363.539062
9913.848261	1.074078	0.180562	462.927795
9913.849134	1.564065	0.180562	1828.356445
9913.849998	1.558385	0.180562	3174.801270
9913.851051	1.513777	0.180562	4768.808594
9913.851946	1.473179	0.180562	6087.303711
9913.852827	1.435836	0.180562	7352.275391
9913.853782	1.101028	0.180562	8403.756836
9913.854757	0.133608	0.180562	8534.025391
9913.855684	0.098046	0.180562	8624.914062
9913.856544	0.098137	0.180562	8709.312500
9913.857577	0.098163	0.180562	8810.714844
9913.858454	0.098203	0.180562	8896.838867
9913.859318	0.098159	0.180562	8981.648437
9913.860214	0.098254	0.180562	9069.684570
9913.861247	0.098196	0.180562	9171.121094
9913.862138	0.098101	0.180562	9258.528320
9913.863016	0.098177	0.180562	9344.728516
9914.914282	1.119844	0.173702	525.206726
9914.915161	1.567017	0.173702	1902.614258
9914.916125	1.554265	0.173702	3400.925781
9914.917186	1.506914	0.173702	4999.761719
9914.918103	1.465565	0.173702	6343.685059
9914.918981	1.427849	0.173702	7597.336426
9914.920054	0.758317	0.173702	8411.009766
9914.921050	0.101400	0.173702	8512.003906
9914.921940	0.098060	0.173702	8599.277344
9914.922917	0.098159	0.173702	8695.178711
9914.923970	0.098159	0.173702	8798.540039
9914.924882	0.098141	0.173702	8888.044922
9914.925744	0.098156	0.173702	8972.655273
9914.926830	0.098163	0.173702	9079.259766
9914.927818	0.098097	0.173702	9176.179687
9914.928695	0.098123	0.173702	9262.233398
9914.929683	0.098152	0.173702	9359.207031
9915.897351	1.127208	0.183978	563.604126
9915.898234	1.568745	0.183978	1948.806030
9915.899127	1.554459	0.183978	3336.937988
9915.900216	1.507211	0.183978	4978.290527
9915.901177	1.464463	0.183978	6385.639648
9915.902043	1.427860	0.183978	7622.166504
9915.903086	0.770255	0.183978	8425.542969
9915.904110	0.102070	0.183978	8530.062500
9915.904990	0.098049	0.183978	8616.345703
9915.905922	0.098177	0.183978	8707.846680
9915.906981	0.098101	0.183978	8811.735352
9915.907923	0.098046	0.183978	8904.094727
9915.908784	0.098123	0.183978	8988.578125
9915.909810	0.098134	0.183978	9089.262695
9915.910836	0.098090	0.183978	9189.902344
9915.911726	0.098119	0.183978	9277.228516
9915.912678	0.098167	0.183978	9370.682617
9916.970509	1.139410	0.163088	574.262817
9916.971407	1.569445	0.163088	1983.624023
9916.972272	1.555818	0.163088	3329.406494
9916.973380	1.506969	0.163088	4999.127930
9916.974364	1.463163	0.163088	6438.879883
9916.975243	1.425890	0.163088	7692.237305
9916.976126	0.888864	0.163088	8477.103516
9916.977223	0.104517	0.163088	8591.757812
9916.978101	0.098035	0.163088	8677.832031
9916.978959	0.098082	0.163088	8761.986328
9916.979988	0.098203	0.163088	8863.037109
9916.980952	0.098075	0.163088	8957.581055
9916.981868	0.098181	0.163088	9047.514648
9916.982744	0.098093	0.163088	9133.444336
9916.983825	0.098119	0.163088	9239.510742
9916.984734	0.098049	0.163088	9328.637695
9916.985611	0.098082	0.163088	9414.656250
9917.947371	1.115222	0.188559	524.154419
9917.948243	1.566636	0.188559	1890.260742
9917.949218	1.553646	0.188559	3405.065918
9917.950288	1.506057	0.188559	5016.546875
9917.951206	1.465005	0.188559	6361.421387
9917.952074	1.427238	0.188559	7600.263672
9917.953177	0.713053	0.188559	8386.760742
9917.954164	0.100642	0.188559	8486.094727
9917.955054	0.098057	0.188559	8573.365234
9917.956040	0.098247	0.188559	8670.237305
9917.957084	0.098086	0.188559	8772.638672
9917.957983	0.098185	0.188559	8860.907227
9917.958845	0.098145	0.188559	8945.507812
9917.959947	0.098177	0.188559	9053.699219
9917.960915	0.098137	0.188559	9148.696289
9917.961779	0.098152	0.188559	9233.499023
9917.962881	0.098254	0.188559	9341.775391
9919.024568	1.061400	0.154161	444.726685
9919.025457	1.562443	0.154161	1833.738159
9919.026552	1.549775	0.154161	3530.742187
9919.027510	1.507277	0.154161	4974.713379
9919.028387	1.467916	0.154161	6262.076172
9919.029406	1.424747	0.154161	7713.893555
9919.030452	0.673905	0.154161	8418.797852
9919.031348	0.102301	0.154161	8510.459961
9919.032288	0.098093	0.154161	8602.667969
9919.033354	0.098196	0.154161	8707.344727
9919.034295	0.098112	0.154161	8799.667969
9919.035164	0.098167	0.154161	8884.974609
9919.036209	0.098243	0.154161	8987.638672
9919.037220	0.098053	0.154161	9086.770508
9919.038110	0.098269	0.154161	9174.229492
9919.039060	0.098221	0.154161	9267.540039
9919.040093	0.098126	0.154161	9368.904297
9919.999558	1.178218	0.182838	663.336609
9920.000561	1.573037	0.182838	2241.092773
9920.001454	1.547919	0.182838	3623.384277
9920.002316	1.507936	0.182838	4923.224609
9920.003399	1.461273	0.182838	6505.783203
9920.004312	1.422554	0.182838	7804.574707
9920.005190	0.828252	0.182838	8531.780273
9920.006180	0.109369	0.182838	8640.055664
9920.007184	0.098057	0.182838	8738.504883
9920.008055	0.098156	0.182838	8823.998047
9920.008917	0.098156	0.182838	8908.608398
9920.009962	0.098167	0.182838	9011.192383
9920.010892	0.098093	0.182838	9102.418945
9920.011772	0.098159	0.182838	9188.798828
9920.012716	0.098145	0.182838	9281.447266
9920.013743	0.098177	0.182838	9382.275391
9920.014631	0.098145	0.182838	9469.427734
9921.076759	1.148258	0.154999	578.722046
9921.077651	1.569723	0.154999	1978.914917
9921.078513	1.554214	0.154999	3318.647461
9921.079610	1.507284	0.154999	4972.137695
9921.080586	1.464119	0.154999	6401.117187
9921.081451	1.427399	0.154999	7635.816895
9921.082519	0.725248	0.154999	8410.381836
9921.083544	0.101133	0.154999	8514.042969
9921.084428	0.098068	0.154999	8600.734375
9921.085330	0.098108	0.154999	8689.227539
9921.086417	0.098053	0.154999	8795.811523
9921.087360	0.098013	0.154999	8888.237305
9921.088218	0.098126	0.154999	8972.429687
9921.089228	0.098159	0.154999	9071.570312
9921.090267	0.098049	0.154999	9173.443359
9921.091150	0.098130	0.154999	9260.091797
9921.092066	0.098287	0.154999	9350.123047
9922.050500	1.066600	0.190259	459.704742
9922.051364	1.563329	0.190259	1810.420898
9922.052374	1.553965	0.190259	3379.925293
9922.053428	1.507863	0.190259	4969.212402
9922.054325	1.467162	0.190259	6285.256348
9922.055247	1.428168	0.190259	7602.026855
9922.056337	0.727983	0.190259	8395.528320
9922.057280	0.102290	0.190259	8491.988281
9922.058147	0.097947	0.190259	8576.908203
9922.059192	0.098203	0.190259	8679.530273
9922.060216	0.098104	0.190259	8779.989258
9922.061110	0.098159	0.190259	8867.743164
9922.062056	0.098306	0.190259	8960.740234
9922.063097	0.098145	0.190259	9062.908203
9922.064021	0.098097	0.190259	9153.549805
9922.064881	0.098254	0.190259	9238.048828
9922.065933	0.098280	0.190259	9341.439453
9923.130827	1.091700	0.144227	475.981384
9923.131704	1.564944	0.144227	1848.437012
9923.132712	1.553456	0.144227	3414.320312
9923.133688	1.510177	0.144227	4888.252930
9923.134599	1.468956	0.144227	6226.472168
9923.135489	1.431665	0.144227	7500.653809
9923.136494	0.945062	0.144227	8450.441406
9923.137416	0.113914	0.144227	8555.469727
9923.138290	0.098020	0.144227	8641.139648
9923.139304	0.098170	0.144227	8740.684570
9923.140290	0.098262	0.144227	8837.570312
9923.141180	0.098145	0.144227	8924.918945
9923.142048	0.098057	0.144227	9010.032227
9923.143062	0.098265	0.144227	9109.672852
9923.143966	0.098152	0.144227	9198.402344
9923.144846	0.098167	0.144227	9284.789062
9923.145815	0.098159	0.144227	9379.905273
9924.103629	1.079407	0.183382	471.700745
9924.104497	1.563970	0.183382	1829.226562
9924.105518	1.553082	0.183382	3414.923340
9924.106566	1.507321	0.183382	4994.595215
9924.107449	1.466986	0.183382	6289.943848
9924.108353	1.428636	0.183382	7581.431152
9924.109416	0.781948	0.183382	8412.642578
9924.110367	0.104044	0.183382	8511.588867
9924.111223	0.097991	0.183382	8595.468750
9924.112244	0.098229	0.183382	8695.760742
9924.113278	0.098108	0.183382	8797.204102
9924.114170	0.098188	0.183382	8884.788086
9924.115100	0.098218	0.183382	8976.130859
9924.116160	0.098082	0.183382	9080.097656
9924.117102	0.098086	0.183382	9172.494141
9924.117967	0.098177	0.183382	9257.417969
9924.118999	0.098188	0.183382	9358.748047
9925.182988	1.138107	0.144743	575.882019
9925.183882	1.569683	0.144743	1979.178223
9925.184746	1.554569	0.144743	3322.325928
9925.185859	1.506899	0.144743	4999.504883
9925.186825	1.463617	0.144743	6413.358887
9925.187692	1.427278	0.144743	7650.808594
9925.188714	0.796659	0.144743	8464.994141
9925.189767	0.102462	0.144743	8572.886719
9925.190645	0.098174	0.144743	8659.083008
9925.191529	0.098273	0.144743	8745.956055
9925.192617	0.098240	0.144743	8852.840820
9925.193570	0.098251	0.144743	8946.473633
9925.194428	0.098196	0.144743	9030.725586
9925.195446	0.098134	0.144743	9130.625977
9925.196486	0.098170	0.144743	9232.722656
9925.197378	0.098020	0.144743	9320.156250
9925.198307	0.098276	0.144743	9411.455078
9926.155706	1.064696	0.180736	450.366394
9926.156679	1.568741	0.180736	1976.751709
9926.157581	1.554185	0.180736	3378.626221
9926.158461	1.515732	0.180736	4712.470703
9926.159463	1.471307	0.180736	6186.720703
9926.160395	1.430654	0.180736	7520.090332
9926.161315	1.048378	0.180736	8484.597656
9926.162179	0.136761	0.180736	8602.759766
9926.163229	0.097899	0.180736	8705.553711
9926.164111	0.098075	0.180736	8792.055664
9926.164978	0.098163	0.180736	8877.163086
9926.165941	0.098068	0.180736	8971.602539
9926.166881	0.098119	0.180736	9063.833984
9926.167792	0.098097	0.180736	9153.200195
9926.168664	0.098101	0.180736	9238.744141
9926.169699	0.098145	0.180736	9340.324219
9926.170593	0.098093	0.180736	9428.019531
9927.235153	1.193101	0.146676	684.839722
9927.236201	1.572253	0.146676	2332.561279
9927.237073	1.545985	0.146676	3680.660156
9927.237962	1.504651	0.146676	5018.294922
9927.239050	1.457838	0.146676	6604.422852
9927.240014	1.417767	0.146676	7971.150391
9927.240893	0.653613	0.146676	8545.676758
9927.241921	0.100474	0.146676	8648.963867
9927.242965	0.098141	0.146676	8751.422852
9927.243854	0.098126	0.146676	8838.657227
9927.244779	0.098203	0.146676	8929.495117
9927.245831	0.098232	0.146676	9032.835937
9927.246776	0.098170	0.146676	9125.606445
9927.247649	0.098145	0.146676	9211.287109
9927.248692	0.098185	0.146676	9313.694336
9927.249711	0.098104	0.146676	9413.662109
9927.250603	0.098148	0.146676	9501.209961
9928.207813	1.077407	0.182246	462.207703
9928.208855	1.566987	0.182246	2095.008545
9928.209849	1.547285	0.182246	3633.009766
9928.210742	1.507401	0.182246	4979.119141
9928.211603	1.467228	0.182246	6242.402344
9928.212708	1.423293	0.182246	7815.141602
9928.213602	0.790166	0.182246	8521.549805
9928.214469	0.107996	0.182246	8615.181641
9928.215463	0.098119	0.182246	8712.711914
9928.216461	0.097954	0.182246	8810.469727
9928.217355	0.098174	0.182246	8898.237305
9928.218217	0.098108	0.182246	8982.806641
9928.219292	0.098108	0.182246	9088.272461
9928.220209	0.098049	0.182246	9178.183594
9928.221085	0.098104	0.182246	9264.123047
9928.222060	0.098313	0.182246	9359.978516
9928.223062	0.098057	0.182246	9458.231445
9929.287106	1.061532	0.148795	445.843384
9929.288070	1.563534	0.148795	1953.090210
9929.289125	1.548768	0.148795	3587.040771
9929.290052	1.507009	0.148795	4984.038086
9929.290919	1.466946	0.148795	6255.879883
9929.291998	1.422982	0.148795	7791.277832
9929.292996	0.670364	0.148795	8460.300781
9929.293872	0.103271	0.148795	8550.766602
9929.294879	0.098188	0.148795	8649.642578
9929.295922	0.098104	0.148795	8751.964844
9929.296818	0.098053	0.148795	8839.820312
9929.297678	0.098108	0.148795	8924.193359
9929.298756	0.098152	0.148795	9030.000977
9929.299709	0.098079	0.148795	9123.469727
9929.300590	0.098130	0.148795	9209.921875
9929.301593	0.098145	0.148795	9308.361328
9929.302656	0.098181	0.148795	9412.727539
9930.259917	1.087914	0.185972	474.330444
9930.260787	1.564307	0.185972	1835.277222
9930.261861	1.550801	0.185972	3500.837402
9930.262868	1.505537	0.185972	5016.913086
9930.263765	1.465737	0.185972	6331.679199
9930.264763	1.424242	0.185972	7753.072754
9930.265830	0.626012	0.185972	8421.027344
9930.266732	0.100748	0.185972	8511.902344
9930.267592	0.098057	0.185972	8596.231445
9930.268692	0.098236	0.185972	8704.291016
9930.269665	0.097987	0.185972	8799.632812
9930.270527	0.098115	0.185972	8884.208008
9930.271627	0.098130	0.185972	8992.150391
9930.272644	0.098075	0.185972	9091.892578
9930.273529	0.098163	0.185972	9178.766602
9930.274450	0.098152	0.185972	9269.164062
9930.275495	0.098240	0.185972	9371.824219
9931.338166	1.066659	0.152453	446.930115
9931.339213	1.570148	0.152453	2090.874756
9931.340112	1.551892	0.152453	3486.025879
9931.340986	1.512843	0.152453	4808.250977
9931.341912	1.471172	0.152453	6170.556152
9931.342905	1.429541	0.152453	7590.090332
9931.343835	0.977944	0.152453	8499.578125
9931.344701	0.125200	0.152453	8608.001953
9931.345762	0.098112	0.152453	8712.098633
9931.346660	0.098177	0.152453	8800.261719
9931.347530	0.098068	0.152453	8885.580078
9931.348392	0.098167	0.152453	8970.199219
9931.349431	0.098123	0.152453	9072.148437
9931.350325	0.098060	0.152453	9159.814453
9931.351200	0.098119	0.152453	9245.668945
9931.352179	0.098276	0.152453	9341.881836
9931.353117	0.098086	0.152453	9433.886719
9932.313053	1.099633	0.175313	491.535736
9932.313922	1.564567	0.175313	1851.144165
9932.315012	1.550138	0.175313	3540.794434
9932.316006	1.505189	0.175313	5036.952637
9932.316888	1.465631	0.175313	6329.639160
9932.317882	1.424747	0.175313	7745.837891
9932.318941	0.646249	0.175313	8430.214844
9932.319829	0.101528	0.175313	8520.372070
9932.320692	0.097983	0.175313	8604.931641
9932.321774	0.098097	0.175313	8711.072266
9932.322741	0.097998	0.175313	8805.835937
9932.323619	0.098031	0.175313	8891.907227
9932.324612	0.098042	0.175313	8989.262695
9932.325659	0.098071	0.175313	9091.943359
9932.326554	0.098016	0.175313	9179.667969
9932.327416	0.098082	0.175313	9264.214844
9932.328522	0.098141	0.175313	9372.758789
9933.390273	1.065630	0.151909	452.892670
9933.391281	1.567247	0.151909	2032.678101
9933.392324	1.547523	0.151909	3646.744629
9933.393207	1.507346	0.151909	4977.731445
9933.394115	1.466298	0.151909	6309.129883
9933.395188	1.421949	0.151909	7834.881836
9933.396138	0.695087	0.151909	8495.213867
9933.397000	0.104227	0.151909	8585.057617
9933.398049	0.098148	0.151909	8688.014648
9933.399068	0.098218	0.151909	8788.098633
9933.399944	0.098108	0.151909	8874.041016
9933.400898	0.098251	0.151909	8967.772461
9933.401952	0.098276	0.151909	9071.355469
9933.402887	0.098145	0.151909	9163.121094
9933.403754	0.098115	0.151909	9248.186523
9933.404804	0.098269	0.151909	9351.369141
9933.405814	0.098188	0.151909	9450.539062
9934.368281	1.147416	0.163974	584.034607
9934.369242	1.571396	0.163974	2094.146729
9934.370115	1.552408	0.163974	3449.399170
9934.371185	1.504640	0.163974	5059.363770
9934.372220	1.458842	0.163974	6569.264648
9934.373115	1.421338	0.163974	7841.362305
9934.374052	0.725958	0.163974	8521.584961
9934.375109	0.100316	0.163974	8627.619141
9934.376050	0.098090	0.163974	8719.921875
9934.376920	0.098112	0.163974	8805.279297
9934.377961	0.098112	0.163974	8907.413086
9934.378975	0.098134	0.163974	9006.920898
9934.379867	0.098181	0.163974	9094.498047
9934.380816	0.098079	0.163974	9187.574219
9934.381855	0.098112	0.163974	9289.511719
9934.382785	0.098141	0.163974	9380.783203
9934.383646	0.098097	0.163974	9465.245117
9935.440313	1.074291	0.153299	450.127869
9935.441389	1.569990	0.153299	2139.437500
9935.442383	1.545883	0.153299	3676.044922
9935.443278	1.506046	0.153299	5023.956055
9935.444273	1.461936	0.153299	6478.582520
9935.445332	1.417925	0.153299	7980.165039
9935.446240	0.603538	0.153299	8528.176758
9935.447098	0.102114	0.153299	8615.791016
9935.448206	0.098126	0.153299	8724.514648
9935.449172	0.098163	0.153299	8819.339844
9935.450038	0.098214	0.153299	8904.393555
9935.451100	0.098262	0.153299	9008.747070
9935.452125	0.098093	0.153299	9109.292969
9935.453010	0.098097	0.153299	9196.108398
9935.453920	0.098174	0.153299	9285.446289
9935.454977	0.098203	0.153299	9389.247070
9935.455922	0.098112	0.153299	9481.962891
9936.421414	1.164705	0.165182	604.481689
9936.422385	1.572125	0.165182	2131.015381
9936.423246	1.552068	0.165182	3467.345703
9936.424311	1.504592	0.165182	5069.736328
9936.425356	1.458798	0.165182	6594.179687
9936.426241	1.421353	0.165182	7852.076660
9936.427161	0.731495	0.165182	8525.052734
9936.428237	0.100646	0.165182	8633.347656
9936.429169	0.097998	0.165182	8724.681641
9936.430027	0.098053	0.165182	8808.811523
9936.431050	0.098108	0.165182	8909.175781
9936.432096	0.098134	0.165182	9011.823242
9936.432972	0.098060	0.165182	9097.723633
9936.433915	0.098108	0.165182	9190.239258
9936.434966	0.098093	0.165182	9293.334961
9936.435899	0.098115	0.165182	9384.876953
9936.436768	0.098027	0.165182	9470.062500
9937.491483	1.150653	0.156078	582.230408
9937.492423	1.571027	0.156078	2058.995361
9937.493288	1.553474	0.156078	3402.750488
9937.494338	1.507299	0.156078	4985.414062
9937.495361	1.461694	0.156078	6480.727539
9937.496241	1.424645	0.156078	7734.415039
9937.497217	0.779590	0.156078	8495.294922
9937.498277	0.101774	0.156078	8603.174805
9937.499198	0.098108	0.156078	8693.532227
9937.500055	0.098068	0.156078	8777.576172
9937.501096	0.098188	0.156078	8879.790039
9937.502105	0.098148	0.156078	8978.821289
9937.502994	0.098123	0.156078	9066.051758
9937.503967	0.098199	0.156078	9161.599609
9937.505020	0.098130	0.156078	9264.930664
9937.505938	0.098225	0.156078	9355.101562
9937.506798	0.098262	0.156078	9439.606445
9938.475471	1.101182	0.164219	480.115204
9938.476357	1.565350	0.164219	1867.015625
9938.477227	1.558667	0.164219	3223.055908
9938.478286	1.512528	0.164219	4824.823242
9938.479209	1.469568	0.164219	6181.234375
9938.480135	1.431138	0.164219	7506.467773
9938.481003	1.058218	0.164219	8425.000977
9938.482047	0.116569	0.164219	8546.698242
9938.482925	0.097961	0.164219	8632.708008
9938.483792	0.098053	0.164219	8717.719727
9938.484785	0.098115	0.164219	8815.148437
9938.485715	0.098134	0.164219	8906.413086
9938.486614	0.098119	0.164219	8994.622070
9938.487492	0.098042	0.164219	9080.703125
9938.488513	0.098137	0.164219	9180.901367
9938.489410	0.098057	0.164219	9268.858398
9938.490282	0.098082	0.164219	9354.385742
9939.540536	1.180206	0.156392	650.293701
9939.541624	1.572056	0.156392	2360.690430
9939.542506	1.544897	0.156392	3723.290039
9939.543374	1.503596	0.156392	5028.411621
9939.544494	1.456088	0.156392	6659.229492
9939.545462	1.416211	0.156392	8030.121582
9939.546341	0.588838	0.156392	8547.709961
9939.547372	0.099862	0.156392	8650.667969
9939.548401	0.098049	0.156392	8751.560547
9939.549288	0.098145	0.156392	8838.615234
9939.550210	0.098174	0.156392	8929.131836
9939.551276	0.098218	0.156392	9033.832031
9939.552222	0.098130	0.156392	9126.663086
9939.553086	0.098273	0.156392	9211.570312
9939.554125	0.098229	0.156392	9313.629883
9939.555139	0.098104	0.156392	9413.107422
9939.556031	0.098188	0.156392	9500.691406
9940.530735	1.134672	0.155744	609.318604
9940.531765	1.572876	0.155744	2229.380859
9940.532657	1.547820	0.155744	3610.036133
9940.533522	1.508082	0.155744	4914.527344
9940.534603	1.460991	0.155744	6493.858887
9940.535537	1.421840	0.155744	7821.856934
9940.536416	0.795443	0.155744	8521.051758
9940.537395	0.108058	0.155744	8626.840820
9940.538409	0.098049	0.155744	8726.262695
9940.539292	0.098090	0.155744	8812.875977
9940.540149	0.098221	0.155744	8897.051758
9940.541191	0.098119	0.155744	8999.291992
9940.542126	0.098225	0.155744	9091.132812
9940.542998	0.098090	0.155744	9176.666992
9940.543936	0.098199	0.155744	9268.778320
9940.544976	0.098159	0.155744	9370.864258
9940.545867	0.098101	0.155744	9458.271484
9941.591547	1.128219	0.155607	548.314453
9941.592425	1.567767	0.155607	1924.814087
9941.593378	1.553910	0.155607	3405.690186
9941.594455	1.506020	0.155607	5027.674316
9941.595397	1.463785	0.155607	6406.560059
9941.596264	1.426860	0.155607	7643.647949
9941.597322	0.747418	0.155607	8434.416016
9941.598329	0.101294	0.155607	8536.418945
9941.599199	0.098108	0.155607	8621.772461
9941.600157	0.098295	0.155607	8715.938477
9941.601211	0.098134	0.155607	8819.371094
9941.602129	0.098207	0.155607	8909.525391
9941.602999	0.098170	0.155607	8994.933594
9941.604077	0.098207	0.155607	9100.800781
9941.605072	0.098090	0.155607	9198.400391
9941.605961	0.098097	0.155607	9285.608398
9941.606937	0.098342	0.155607	9381.590820
9942.584816	1.120499	0.155522	531.116638
9942.585693	1.566881	0.155522	1905.271240
9942.586559	1.557283	0.155522	3253.878174
9942.587611	1.511228	0.155522	4843.689941
9942.588554	1.468868	0.155522	6228.833008
9942.589436	1.431790	0.155522	7491.671387
9942.590381	0.991827	0.155522	8428.948242
9942.591438	0.110629	0.155522	8545.882812
9942.592326	0.097994	0.155522	8632.901367
9942.593187	0.098163	0.155522	8717.419922
9942.594231	0.098134	0.155522	8819.871094
9942.595177	0.098134	0.155522	8912.705078
9942.596049	0.098177	0.155522	8998.315430
9942.596949	0.098203	0.155522	9086.698242
9942.598032	0.098134	0.155522	9192.976562
9942.598904	0.098177	0.155522	9278.586914
9942.599768	0.098020	0.155522	9363.276367
9943.640593	1.143516	0.158689	575.188416
9943.641579	1.571785	0.158689	2124.968018
9943.642476	1.550570	0.158689	3515.829590
9943.643477	1.505746	0.158689	5023.081055
9943.644545	1.459065	0.158689	6581.362305
9943.645443	1.420701	0.158689	7857.151367
9943.646332	0.734590	0.158689	8510.202148
9943.647427	0.100280	0.158689	8620.007812
9943.648373	0.098079	0.158689	8712.790039
9943.649241	0.098079	0.158689	8797.921875
9943.650274	0.098174	0.158689	8899.334961
9943.651306	0.098101	0.158689	9000.575195
9943.652189	0.098163	0.158689	9087.252930
9943.653106	0.098104	0.158689	9177.214844
9943.654162	0.098236	0.158689	9280.952148
9943.655105	0.098097	0.158689	9373.458008
9943.655964	0.098145	0.158689	9457.763672
9944.637953	1.142076	0.157400	551.622864
9944.638834	1.568210	0.157400	1933.216309
9944.639789	1.553665	0.157400	3416.965820
9944.640841	1.506654	0.157400	5001.965820
9944.641767	1.465184	0.157400	6358.726562
9944.642632	1.428127	0.157400	7594.056641
9944.643712	0.758848	0.157400	8413.612305
9944.644721	0.101536	0.157400	8516.061523
9944.645597	0.098123	0.157400	8602.016602
9944.646570	0.098203	0.157400	8697.568359
9944.647619	0.098086	0.157400	8800.460937
9944.648516	0.098101	0.157400	8888.457031
9944.649383	0.098119	0.157400	8973.526367
9944.650443	0.098188	0.157400	9077.606445
9944.651442	0.097998	0.157400	9175.506836
9944.652336	0.098236	0.157400	9263.330078
9944.653295	0.098199	0.157400	9357.502930
9945.690660	1.159189	0.159325	595.823303
9945.691596	1.571118	0.159325	2066.389893
9945.692461	1.553229	0.159325	3409.932617
9945.693511	1.506878	0.159325	4992.154297
9945.694546	1.461211	0.159325	6504.507812
9945.695418	1.424062	0.159325	7746.290039
9945.696382	0.764055	0.159325	8482.838867
9945.697450	0.101206	0.159325	8590.926758
9945.698363	0.098064	0.159325	8680.458984
9945.699232	0.098196	0.159325	8765.791016
9945.700290	0.098177	0.159325	8869.663086
9945.701290	0.098130	0.159325	8967.792969
9945.702181	0.098031	0.159325	9055.138672
9945.703149	0.098295	0.159325	9150.288086
9945.704200	0.098071	0.159325	9253.361328
9945.705107	0.098108	0.159325	9342.344727
9945.705969	0.098236	0.159325	9427.024414
9946.691060	1.120671	0.160445	536.801575
9946.691934	1.567240	0.160445	1906.569336
9946.692889	1.553998	0.160445	3390.637207
9946.693956	1.506346	0.160445	4997.909180
9946.694885	1.464833	0.160445	6358.738770
9946.695758	1.427552	0.160445	7604.992187
9946.696838	0.735740	0.160445	8399.590820
9946.697851	0.100723	0.160445	8501.623047
9946.698741	0.097972	0.160445	8588.818359
9946.699713	0.098104	0.160445	8684.175781
9946.700771	0.098181	0.160445	8788.051758
9946.701683	0.098064	0.160445	8877.486328
9946.702545	0.098207	0.160445	8962.140625
9946.703635	0.098313	0.160445	9069.301758
9946.704629	0.098090	0.160445	9166.802734
9946.705522	0.098097	0.160445	9254.403320
9946.706500	0.098108	0.160445	9350.352539
9947.743758	1.142223	0.152300	577.964783
9947.744697	1.570873	0.152300	2053.014404
9947.745568	1.553551	0.152300	3406.157227
9947.746613	1.506980	0.152300	4980.951172
9947.747649	1.461149	0.152300	6494.701172
9947.748545	1.423499	0.152300	7770.155762
9947.749508	0.761016	0.152300	8503.013672
9947.750556	0.100968	0.152300	8608.828125
9947.751490	0.098141	0.152300	8700.492187
9947.752349	0.098064	0.152300	8784.729492
9947.753406	0.098064	0.152300	8888.382812
9947.754397	0.098108	0.152300	8985.607422
9947.755281	0.098090	0.152300	9072.318359
9947.756264	0.098112	0.152300	9168.761719
9947.757314	0.098126	0.152300	9271.793945
9947.758228	0.098035	0.152300	9361.397461
9947.759087	0.098108	0.152300	9445.671875
9948.743185	1.146815	0.165271	580.288452
9948.744203	1.572059	0.165271	2180.644775
9948.745097	1.549259	0.165271	3565.682129
9948.746059	1.506823	0.165271	5015.245605
9948.747114	1.459321	0.165271	6554.829590
9948.748050	1.420151	0.165271	7884.091309
9948.748921	0.739065	0.165271	8527.816406
9948.749996	0.101122	0.165271	8636.522461
9948.750995	0.098013	0.165271	8734.437500
9948.751878	0.098130	0.165271	8821.085937
9948.752864	0.098159	0.165271	8917.871094
9948.753906	0.098159	0.165271	9020.153320
9948.754811	0.098086	0.165271	9108.920898
9948.755669	0.098148	0.165271	9193.131836
9948.756755	0.098060	0.165271	9299.625000
9948.757749	0.098134	0.165271	9397.169922
9948.758620	0.098035	0.165271	9482.558594
9949.793811	1.139535	0.154241	576.604675
9949.794715	1.569533	0.154241	1995.462158
9949.795579	1.553987	0.154241	3338.106689
9949.796673	1.507137	0.154241	4986.915039
9949.797666	1.462463	0.154241	6439.141113
9949.798544	1.425377	0.154241	7690.622070
9949.799543	0.753842	0.154241	8443.709961
9949.800596	0.101254	0.154241	8550.330078
9949.801483	0.098016	0.154241	8637.270508
9949.802348	0.098042	0.154241	8722.077148
9949.803455	0.098167	0.154241	8830.747070
9949.804418	0.098079	0.154241	8925.196289
9949.805285	0.098108	0.154241	9010.255859
9949.806303	0.098137	0.154241	9110.159180
9949.807351	0.098104	0.154241	9212.972656
9949.808239	0.098185	0.154241	9300.161133
9949.809150	0.098123	0.154241	9389.550781
9950.795199	1.067626	0.164985	455.876190
9950.796092	1.562644	0.164985	1851.317261
9950.797192	1.549786	0.164985	3556.082275
9950.798087	1.509448	0.164985	4907.038086
9950.798954	1.470132	0.164985	6181.642578
9950.799961	1.427747	0.164985	7619.383301
9950.800939	0.870048	0.164985	8470.290039
9950.801815	0.111577	0.164985	8568.031250
9950.802678	0.098035	0.164985	8652.634766
9950.803799	0.098112	0.164985	8762.618164
9950.804706	0.098152	0.164985	8851.641602
9950.805578	0.098214	0.164985	8937.284180
9950.806584	0.098185	0.164985	9036.058594
9950.807566	0.098086	0.164985	9132.378906
9950.808452	0.098185	0.164985	9219.371094
9950.809312	0.098086	0.164985	9303.724609
9950.810401	0.098167	0.164985	9410.627930
9951.845931	1.156926	0.151905	622.426331
9951.846999	1.571916	0.151905	2301.233154
9951.847909	1.545128	0.151905	3707.299805
9951.848777	1.503940	0.151905	5012.719727
9951.849900	1.456351	0.151905	6648.202148
9951.850865	1.416372	0.151905	8015.000977
9951.851746	0.595214	0.151905	8539.383789
9951.852800	0.099467	0.151905	8644.221680
9951.853830	0.098123	0.151905	8745.288086
9951.854726	0.098130	0.151905	8833.212891
9951.855661	0.098207	0.151905	8925.036133
9951.856720	0.098126	0.151905	9028.952148
9951.857661	0.098038	0.151905	9121.206055
9951.858523	0.098141	0.151905	9205.803711
9951.859570	0.098284	0.151905	9308.707031
9951.860585	0.097972	0.151905	9408.149414
9951.861464	0.098163	0.151905	9494.434570
9952.847325	1.120488	0.169625	506.460693
9952.848210	1.566218	0.169625	1892.563843
9952.849072	1.556316	0.169625	3234.108154
9952.850166	1.510408	0.169625	4886.494141
9952.851068	1.469202	0.169625	6211.713867
9952.851945	1.432441	0.169625	7467.964844
9952.852955	0.954760	0.169625	8432.271484
9952.853951	0.110687	0.169625	8542.515625
9952.854829	0.098024	0.169625	8628.580078
9952.855692	0.098130	0.169625	8713.266602
9952.856775	0.098141	0.169625	8819.552734
9952.857695	0.098068	0.169625	8909.775391
9952.858574	0.098156	0.169625	8996.053711
9952.859542	0.098203	0.169625	9091.114258
9952.860546	0.097987	0.169625	9189.493164
9952.861431	0.098060	0.169625	9276.276367
9952.862294	0.098093	0.169625	9360.930664
9953.900044	1.135701	0.142696	570.121765
9953.900952	1.569474	0.142696	1995.204102
9953.901818	1.553910	0.142696	3340.890137
9953.902881	1.507705	0.142696	4943.580566
9953.903882	1.462899	0.142696	6407.942383
9953.904773	1.425787	0.142696	7678.318848
9953.905768	0.775598	0.142696	8450.039062
9953.906822	0.101671	0.142696	8557.200195
9953.907718	0.098192	0.142696	8645.180664
9953.908581	0.098042	0.142696	8729.791016
9953.909685	0.098159	0.142696	8838.159180
9953.910656	0.098046	0.142696	8933.361328
9953.911526	0.098188	0.142696	9018.785156
9953.912594	0.098126	0.142696	9123.583984
9953.913640	0.098148	0.142696	9226.247070
9953.914531	0.098126	0.142696	9313.677734
9953.915453	0.098188	0.142696	9404.207031
9954.899533	1.197209	0.163873	681.212219
9954.900485	1.572198	0.163873	2177.945068
9954.901400	1.548267	0.163873	3594.608887
9954.902279	1.507592	0.163873	4919.781738
9954.903373	1.460728	0.163873	6517.817871
9954.904295	1.422052	0.163873	7828.949707
9954.905168	0.814709	0.163873	8540.191406
9954.906221	0.102660	0.163873	8648.291992
9954.907189	0.098064	0.163873	8743.217773
9954.908061	0.098053	0.163873	8828.719727
9954.908921	0.098137	0.163873	8913.118164
9954.910023	0.098159	0.163873	9021.290039
9954.910910	0.098035	0.163873	9108.247070
9954.911782	0.098159	0.163873	9193.841797
9954.912787	0.098156	0.163873	9292.488281
9954.913776	0.098101	0.163873	9389.509766
9954.914661	0.098027	0.163873	9476.263672
9955.950102	1.161665	0.144743	595.934204
9955.950993	1.569613	0.144743	1994.459351
9955.951941	1.552086	0.144743	3465.837158
9955.953008	1.504307	0.144743	5070.932617
9955.953958	1.462152	0.144743	6459.977051
9955.954825	1.425322	0.144743	7695.731445
9955.955887	0.690846	0.144743	8429.410156
9955.956889	0.100397	0.144743	8530.007812
9955.957768	0.098101	0.144743	8616.238281
9955.958740	0.098210	0.144743	8711.699219
9955.959784	0.098141	0.144743	8814.158203
9955.960699	0.098159	0.144743	8903.973633
9955.961559	0.098177	0.144743	8988.406250
9955.962636	0.098236	0.144743	9094.206055
9955.963633	0.097983	0.144743	9191.895508
9955.964504	0.098174	0.144743	9277.405273
9955.965473	0.098324	0.144743	9372.681641
9956.951482	1.076155	0.161210	454.137329
9956.952556	1.569576	0.161210	2139.862305
9956.953545	1.546201	0.161210	3669.055176
9956.954427	1.506691	0.161210	4997.956055
9956.955423	1.462906	0.161210	6455.010742
9956.956480	1.418815	0.161210	7954.697754
9956.957381	0.645710	0.161210	8536.482422
9956.958238	0.102997	0.161210	8624.750977
9956.959351	0.098243	0.161210	8734.095703
9956.960312	0.097987	0.161210	8828.261719
9956.961175	0.098071	0.161210	8912.897461
9956.962173	0.098163	0.161210	9010.864258
9956.963226	0.098276	0.161210	9114.349609
9956.964110	0.098196	0.161210	9201.154297
9956.964982	0.098174	0.161210	9286.761719
9956.966075	0.098258	0.161210	9394.158203
9956.967033	0.098145	0.161210	9488.180664
9958.004170	1.076393	0.144573	468.230865
9958.005036	1.563596	0.144573	1822.305054
9958.005902	1.558898	0.144573	3172.310547
9958.006877	1.517043	0.144573	4651.427734
9958.007813	1.474655	0.144573	6031.704102
9958.008695	1.437250	0.144573	7299.358398
9958.009774	1.042328	0.144573	8424.030273
9958.010668	0.128434	0.144573	8538.850586
9958.011547	0.097991	0.144573	8624.984375
9958.012403	0.098112	0.144573	8708.967773
9958.013469	0.098115	0.144573	8813.558594
9958.014345	0.098020	0.144573	8899.423828
9958.015211	0.098101	0.144573	8984.378906
9958.016197	0.098218	0.144573	9081.221680
9958.017118	0.098038	0.144573	9171.514648
9958.018031	0.098137	0.144573	9261.114258
9958.018910	0.098148	0.144573	9347.386719
9959.003597	1.078663	0.160679	473.533203
9959.004462	1.563750	0.160679	1826.176880
9959.005501	1.552053	0.160679	3438.760254
9959.006539	1.506233	0.160679	5002.229980
9959.007424	1.466356	0.160679	6299.955078
9959.008392	1.426447	0.160679	7680.755371
9959.009454	0.691403	0.160679	8415.025391
9959.010384	0.101554	0.160679	8509.470703
9959.011248	0.097947	0.160679	8594.096680
9959.012339	0.098115	0.160679	8701.140625
9959.013329	0.098005	0.160679	8798.166016
9959.014220	0.098020	0.160679	8885.501953
9959.015201	0.098031	0.160679	8981.669922
9959.016246	0.098090	0.160679	9084.173828
9959.017149	0.098115	0.160679	9172.771484
9959.018008	0.098115	0.160679	9257.052734
9959.019090	0.098273	0.160679	9363.383789
9960.056334	1.144889	0.139244	577.024048
9960.057218	1.568822	0.139244	1963.862671
9960.058134	1.553416	0.139244	3386.791260
9960.059217	1.505742	0.139244	5017.509766
9960.060173	1.463170	0.139244	6416.300293
9960.061040	1.426461	0.139244	7653.041992
9960.062101	0.718927	0.139244	8415.823242
9960.063112	0.100682	0.139244	8517.613281
9960.063993	0.098009	0.139244	8603.958984
9960.064972	0.098119	0.139244	8700.017578
9960.066017	0.098141	0.139244	8802.575195
9960.066932	0.098038	0.139244	8892.280273
9960.067790	0.098112	0.139244	8976.459961
9960.068843	0.098185	0.139244	9079.848633
9960.069850	0.098049	0.139244	9178.583984
9960.070723	0.098130	0.139244	9264.250977
9960.071694	0.098177	0.139244	9359.581055
9961.054663	1.074291	0.158374	463.019379
9961.055524	1.562941	0.158374	1808.711304
9961.056520	1.554192	0.158374	3356.686523
9961.057452	1.513004	0.158374	4766.806641
9961.058379	1.471663	0.158374	6131.038086
9961.059242	1.433767	0.158374	7368.378906
9961.060220	1.052135	0.158374	8397.367187
9961.061162	0.129858	0.158374	8519.693359
9961.062039	0.097965	0.158374	8605.608398
9961.063028	0.098057	0.158374	8702.585937
9961.063923	0.098020	0.158374	8790.313477
9961.064835	0.098002	0.158374	8879.691406
9961.065700	0.098086	0.158374	8964.536133
9961.066689	0.098079	0.158374	9061.536133
9961.067609	0.098020	0.158374	9151.714844
9961.068487	0.098060	0.158374	9237.811523
9961.069380	0.098145	0.158374	9325.455078
9962.108461	1.169733	0.142934	615.279419
9962.109503	1.571862	0.142934	2253.159180
9962.110389	1.547538	0.142934	3624.277832
9962.111347	1.504882	0.142934	5065.954590
9962.112414	1.457578	0.142934	6621.190430
9962.113351	1.418372	0.142934	7950.204590
9962.114214	0.686763	0.142934	8542.880859
9962.115279	0.100334	0.142934	8649.737305
9962.116293	0.098152	0.142934	8749.263672
9962.117167	0.098192	0.142934	8835.083984
9962.118144	0.098247	0.142934	8931.071289
9962.119191	0.098075	0.142934	9033.755859
9962.120104	0.098097	0.142934	9123.318359
9962.120971	0.098071	0.142934	9208.345703
9962.122060	0.098225	0.142934	9315.312500
9962.123049	0.098126	0.142934	9412.359375
9962.123937	0.098035	0.142934	9499.414062
9963.106819	1.165316	0.155156	551.194519
9963.107700	1.567921	0.155156	1932.532959
9963.108725	1.550394	0.155156	3521.687012
9963.109700	1.506742	0.155156	4990.760254
9963.110583	1.466905	0.155156	6286.038086
9963.111447	1.428834	0.155156	7520.550781
9963.112563	0.798823	0.155156	8412.037109
9963.113443	0.107175	0.155156	8506.351562
9963.114312	0.097991	0.155156	8591.505859
9963.115308	0.098163	0.155156	8689.276367
9963.116297	0.098060	0.155156	8786.257812
9963.117182	0.097980	0.155156	8872.969727
9963.118040	0.098071	0.155156	8957.115234
9963.119121	0.098112	0.155156	9063.173828
9963.120033	0.098082	0.155156	9152.625000
9963.120911	0.098068	0.155156	9238.728516
9963.121880	0.098126	0.155156	9333.812500
